acc_t,acc_x,acc_y,acc_z,gyr_t,yaw,roll,pitch,gyr_x,gyr_y,gyr_z,acc_x_2,acc_y_2,acc_z_2,quat_x,quat_y,quat_z,quat_w
12745.77946425,-0.0123443603515625,0.0180206298828125,-1.006500244140625,12745.77449625,-0.0095415883625545,-0.0165987745294923,-0.0202172999502922,-0.0048188474029302,0.0424645766615867,0.0069595370441675,0.0058066565543413,-0.0112284272909164,-0.0033633112907409,-0.0101476066453659,-0.0082505498572702,-0.0046864757644791,0.999903495686816
12745.78940041667,-0.0115966796875,0.0157470703125,-1.001998901367188,12745.78443241667,-0.009457319389798,-0.0163087782244906,-0.020237988435028,-0.0095062777400016,0.0281950905919075,0.0103870257735252,0.0039603561162948,-0.0022159069776535,-0.0068379640579223,-0.0101569284662114,-0.0081059431752896,-0.0046457316725978,0.9999047992279164
12745.79933741667,-0.017730712890625,0.0148773193359375,-0.9940948486328124,12745.79436941667,-0.0094296417869689,-0.0157993836805387,-0.0203754676720695,-0.025801358744502,0.0756052508950233,-0.0029627350158989,0.0041987672448158,-0.0046269185841083,-0.002331256866455,-0.0102243688116126,-0.007851080449823,-0.004633934438182,0.9999062542036304
12745.80927441667,0.042633056640625,0.0038604736328125,-1.0089111328125,12745.80430541667,-0.0095991236545707,-0.014618995177773,-0.0207207684230711,-0.0375219359993934,0.1786831766366959,-0.0638684332370758,-0.0031153755262494,-0.0058418959379196,0.005583643913269,-0.0103948827062517,-0.0072592330456229,-0.0047234312489223,0.9999084777707282
12745.81921141667,-0.0096588134765625,0.01702880859375,-0.9714508056640624,12745.81424241667,-0.0101997745605154,-0.0139132933100908,-0.0211487275250525,-0.0015056086704134,0.165892168879509,0.0457077324390411,0.0565427914261817,-0.0172866079956293,-0.0092315077781677,-0.0106092489159266,-0.0069021855715827,-0.0050258974171133,0.9999072768716672
12745.82914741667,0.011993408203125,0.013763427734375,-1.030593872070312,12745.82417941667,-0.0099293381431255,-0.0123854212195242,-0.0208921963801285,0.0059642922133207,0.0064282109960913,0.0345189943909645,0.0027235904708504,-0.0038617998361587,0.0282543301582336,-0.0104763220223979,-0.0061403976207467,-0.0048995953770346,0.9999142564049296
12745.83908441667,-0.0228729248046875,0.020050048828125,-0.989532470703125,12745.83411641667,-0.0097770744625763,-0.0121857530581462,-0.0207632503760431,0.0178150925785303,0.0425418056547641,0.0029490822926163,0.0241762343794107,-0.0069982632994651,-0.0308836102485656,-0.0104109052176037,-0.006041688740339,-0.0048249118731972,0.9999159209252172
12745.84902141667,-0.0035247802734375,0.0149688720703125,-1.010604858398438,12745.84405341667,-0.0097280102119957,-0.0117313182308476,-0.0206683577939011,0.0002198535948991,0.0365523546934127,0.0106304381042718,-0.0111443800851702,-0.0006167702376842,0.0101851820945739,-0.0103622237612888,-0.0058149793614867,-0.0048030279169366,0.999917864999854
12745.85895841667,-0.005889892578125,0.01861572265625,-1.007659912109375,12745.85399041667,-0.0096706644000052,-0.0117532970534886,-0.0207258894667984,-0.0060297865420579,-0.0299869552254676,0.00056888256222,0.0082257241010665,-0.005755465477705,-0.0108886361122131,-0.0103908721926903,-0.0058261237397766,-0.004774072681084,0.9999177136219076
12745.86889541667,-0.009735107421875,0.0159149169921875,-1.001434326171875,12745.86392641667,-0.0097055758085822,-0.0121105381241341,-0.0207767425552394,-0.0103121493011713,-0.0366041101515293,-0.0059646503068506,0.0062177358195185,-0.0021594557911157,-0.0079490542411804,-0.010417254180766,-0.0060044231923219,-0.0047895156795945,0.9999162922788426
12745.87883241667,-0.0108489990234375,0.01873779296875,-1.001602172851562,12745.87386341667,-0.0097694608580776,-0.0125222094551887,-0.02091133262436,-0.0169612634927034,-0.0427383035421371,-0.0090925330296158,0.0027840370312333,-0.004994822666049,-0.0017313361167907,-0.010485726855136,-0.0062095752840446,-0.0048188861572283,0.99991423526781
12745.88876841667,-0.0090179443359375,0.02008056640625,-1.007492065429688,12745.88380041667,-0.0098553837448094,-0.0129570202488224,-0.0209541155495883,0.0129191372543573,-0.0489607788622379,-0.0067398967221379,0.002104815095663,-0.0022147204726934,-0.001905620098114,-0.0105084409217787,-0.0064264050468723,-0.0048594248402704,0.999912337127288
12745.89870541667,-0.0097503662109375,0.0175323486328125,-1.0047607421875,12745.89373741667,-0.0099650019508661,-0.013519582895826,-0.0207159932180585,0.0288158114999532,-0.0786287933588028,-0.0144795756787061,0.0044983262196183,-0.0006338767707347,-0.0077980160713195,-0.0103911242535111,-0.0067076867872723,-0.0049120838297667,0.9999114851706912
12745.90864241667,-0.01275634765625,0.016357421875,-1.00341796875,12745.90367441667,-0.0101484858142493,-0.0143562088840621,-0.0203833266399761,0.0335746146738529,-0.0880617052316665,-0.0219896882772445,0.0046023670583963,-0.0028494969010353,-0.0050715208053588,-0.0102275132040938,-0.0071258643937575,-0.0050006724245966,0.9999099004252294
12745.91857941667,-0.016815185546875,0.0121917724609375,-0.99700927734375,12745.91361141667,-0.0103828999157966,-0.0151501114719603,-0.0201140910342131,0.0172390509396791,-0.067653477191925,-0.0212241634726524,0.002390120178461,-0.0037552434951066,-0.0037350058555603,-0.0100957743380686,-0.0075222896885699,-0.0051148352429711,0.9999077162599178
12745.92851641667,-0.0163116455078125,0.013824462890625,-0.997314453125,12745.92354741667,-0.0104666344098179,-0.0154852173982883,-0.0200073544941954,0.0043259151279926,-0.000443011522293,0.0011834073811769,-0.0013336855918169,-0.0078141782432794,0.0026707053184509,-0.0100435904019331,-0.0076896881181686,-0.0051554231361746,0.9999067118637504
12745.93845341667,-0.0119171142578125,0.0154571533203125,-1.0054931640625,12745.93348441667,-0.0104211823225083,-0.0154384048103406,-0.0199939760927391,-0.0006970725953578,-0.0031320722773671,0.004390119574964,-0.0008769398555159,-0.0061681121587753,0.0023665428161621,-0.0100366071783211,-0.0076665478064187,-0.0051329863918269,0.9999070505085456
12745.94838941667,-0.0111236572265625,0.0186309814453125,-1.007614135742188,12745.94342141667,-0.0103948927690824,-0.0155898635621338,-0.0199162501532577,0.0190856866538524,-0.0309660993516445,-0.0005644252523779,0.003669025376439,-0.0044577103108167,-0.0058130025863647,-0.0099980342979943,-0.007742606684375,-0.0051193874521206,0.9999069685622328
12745.95832641667,-0.0126495361328125,0.0143890380859375,-0.99951171875,12745.95335841667,-0.0103963541847512,-0.0159316595716129,-0.0196550374908914,0.0264964643865823,-0.0350234918296337,-0.0007428573444485,0.0048042498528957,-0.0010227225720882,-0.0079341530799865,-0.0098683203110293,-0.0079141700828253,-0.0051194561296837,0.9999069680775368
12745.96826341667,-0.0146331787109375,0.015625,-0.999237060546875,12745.96329541667,-0.0103897191744606,-0.0161684638709679,-0.0195307606806499,0.0038795694708824,-0.0106584979221224,-0.0002586944028735,0.003515139222145,-0.0051404125988483,0.000166893005371,-0.0098067678958296,-0.0080329221134345,-0.0051154762742271,0.999906579186732
12745.97820041667,-0.014068603515625,0.015594482421875,-1.00347900390625,12745.97323141667,-0.0103946736446029,-0.0161881566250719,-0.0195312540054568,-0.0014494154602289,0.0002083983272314,0.0031642662361264,0.0015511829406023,-0.0039049424231052,0.0004411935806274,-0.0098070846524623,-0.0080427418344219,-0.0051178546197053,0.999906502638642
12745.98813741667,-0.014312744140625,0.016082763671875,-1.002655029296875,12745.98316841667,-0.0104037081940136,-0.0161553654791336,-0.0195125449790147,0.0007298490963876,0.0064093023538589,-0.0043921871110796,0.0020829830318689,-0.0039167553186416,-0.0037998557090759,-0.0097976833165032,-0.0080263528476835,-0.0051226082715685,0.9999067072013824
12745.99807441667,-0.0171356201171875,0.0157318115234375,-1.003189086914062,12745.99310541667,-0.0104134310988722,-0.0160882982371625,-0.0195104243844453,-0.0011567343026399,0.0047385348007082,-0.0005323342047631,0.0017718002200126,-0.0034263543784618,-0.0029747486114501,-0.0097964895321082,-0.0079927798008245,-0.0051278060714741,0.9999070278123012
12746.00801041667,-0.0147552490234375,0.0154571533203125,-1.002182006835938,12746.00304241667,-0.0104128107169047,-0.0160771822386749,-0.0195228319080684,-0.0011538048274815,-0.0012650294229388,0.0013188291341066,-0.0010621938854455,-0.003789709880948,-0.0035088658332824,-0.0098026627484523,-0.0079871933850848,-0.0051275006877416,0.999906910775144
12746.01794741667,-0.0149383544921875,0.0167694091796875,-1.004364013671875,12746.01297941667,-0.010409338852123,-0.0161138829937105,-0.0194886772053299,0.0078181186690926,-0.0070649618282914,-0.0020842913072556,0.0013548769056797,-0.0040302220731973,-0.0025017261505126,-0.0097856667577983,-0.0080056489362024,-0.0051257232619736,0.9999069830432225
12746.02788441667,-0.0137481689453125,0.0156097412109375,-1.005355834960938,12746.02291641667,-0.0104042450191745,-0.0162777971863132,-0.0193157204728013,0.0243909694254398,-0.0286296419799327,-0.0001601572148501,0.0013356879353523,-0.002545041963458,-0.0046830177307128,-0.0096995959062612,-0.0080880798885059,-0.005123082670621,0.9999071806746904
12746.03782141667,-0.015350341796875,0.0150146484375,-1.003524780273438,12746.03285241667,-0.0104099305762195,-0.0166302437917644,-0.0190826552723028,0.0224583130329847,-0.0389066152274608,0.0005973782390356,0.0028782803565263,-0.0034716874361038,-0.0056761503219604,-0.0095840002081746,-0.0082648746738272,-0.0051251903996211,0.9999068676337276
12746.04775841667,-0.0147247314453125,0.0151214599609375,-0.9990692138671876,12746.04278941667,-0.0104132359584275,-0.016920041963654,-0.0188814838343867,0.0164749901741743,-0.0217934064567089,-0.0026447537820786,0.0015658792108297,-0.0038656461983919,-0.0038461089134216,-0.0094841814160687,-0.0084102768794415,-0.0051263105281933,0.9999065020211312
12746.05769541667,-0.0127410888671875,0.01593017578125,-1.002532958984375,12746.05272641667,-0.0104298530329572,-0.0170030032118946,-0.0187101932304046,0.0192574597895145,0.0011201305314898,-0.0019396818242967,0.0022744759917259,-0.0035875719040632,0.0006112456321716,-0.0093988264182913,-0.0084521277031542,-0.0051349568024647,0.9999069768885468
12746.06763141667,-0.0131072998046875,0.01458740234375,-1.005279541015625,12746.06266341667,-0.0104582677973362,-0.0170807027212055,-0.0185442337343725,0.0091691398993134,-0.0189883336424827,-0.0060414825566113,0.0043358486145734,-0.0026129279285669,-0.0028507113456726,-0.0093161745279503,-0.0084912807199854,-0.0051495103472553,0.9999073500698088
12746.07756841667,-0.015472412109375,0.016326904296875,-1.0028076171875,12746.07260041667,-0.0105151218751461,-0.0173078887454509,-0.0184726043554188,0.0064993211999535,-0.0228016804903745,-0.0054147075861692,0.0041967704892158,-0.003884082660079,-0.0055999159812927,-0.0092811933280843,-0.0086047899894327,-0.0051771884184936,0.9999064972411172
12746.08750541667,-0.0183258056640625,0.014068603515625,-1.001174926757812,12746.08253741667,-0.0105611332412021,-0.0174600811957097,-0.0183387241968213,0.0204718615859746,-0.0083628194406628,-0.0026772441342473,0.0019838456064462,-0.0020107235759496,-0.003128170967102,-0.0092148526752072,-0.008681023851837,-0.00520007295161,0.9999063938337034
12746.09744241667,-0.0166778564453125,0.013031005859375,-0.9992523193359376,12746.09247341667,-0.0105653894403292,-0.0174404262312781,-0.0181931707345479,0.0065866727381944,0.0126578444615006,-0.0007467190735042,-0.0008891485631465,-0.0041234977543354,-0.001492440700531,-0.0091420499693012,-0.0086715677372751,-0.0052029294104678,0.9999071483685144
12746.10737941667,-0.016357421875,0.013824462890625,-1.005905151367188,12746.10241041667,-0.0105610410006579,-0.0172621890033307,-0.0182024340553284,-0.0038941977545619,0.0189082846045494,0.0026235114783048,0.0005806144326925,-0.005170352756977,0.0004330873489379,-0.0091461994945557,-0.0085824530493099,-0.0052015302670696,0.9999078140027328
12746.11731641667,-0.01287841796875,0.0153961181640625,-1.005294799804688,12746.11234741667,-0.0105570630437739,-0.017161278263078,-0.0181817559261982,0.0066436645574867,-0.0019263587892055,-0.0018077224958688,0.0008001793175935,-0.0043562222272157,-0.0062176585197448,-0.0091355818581402,-0.008532075795299,-0.0052000920899515,0.9999083607032132
12746.12725241667,-0.0143890380859375,0.012847900390625,-1.003982543945312,12746.12228441667,-0.0105544052366905,-0.0172069573630632,-0.018127826183454,0.0026649017818272,-0.0093230223283171,0.000182191375643,0.0043248645961284,-0.0027306471019983,-0.0056071281433105,-0.0091087273024807,-0.0085550701722082,-0.0051987881542224,0.9999083699926088
12746.13718941667,-0.0137786865234375,0.014007568359375,-1.000885009765625,12746.13222141667,-0.0105360432228649,-0.0172467557183584,-0.0180902097923759,0.0025530490092933,0.0027846740558743,0.0030076722614467,0.0028540417551994,-0.0052412543445825,-0.0042948722839355,-0.0090899453949388,-0.0085751515365509,-0.0051895897136416,0.9999084355175109
12746.14712641667,-0.013214111328125,0.0147247314453125,-1.002838134765625,12746.14215841667,-0.0105294987487587,-0.0171928378406585,-0.018048879870759,0.0094809960573911,0.0015905117616057,0.0006113601848483,0.003410505130887,-0.0040402635931968,-0.0011956691741943,-0.009069113872344,-0.0085483346606346,-0.0051867411245135,0.999908932659136
12746.15706341667,-0.0135345458984375,0.0127105712890625,-1.00567626953125,12746.15209541667,-0.0105256576691976,-0.01728171936722,-0.0179532392176553,0.0071227671578526,-0.0224480796605348,-0.0024199828039854,0.0040639620274305,-0.0032274760305881,-0.00314861536026,-0.0090215117980056,-0.0085930440151164,-0.0051848330831965,0.9999090058587008
12746.16700041667,-0.0153350830078125,0.015655517578125,-1.00201416015625,12746.16203141667,-0.0105167795134181,-0.0175698088776767,-0.0179015716155921,0.0076801665127277,-0.030952351167798,0.0038730669766664,0.0040315445512533,-0.0051899757236242,-0.0059908032417297,-0.0089963887239162,-0.0087372538079175,-0.0051793232051917,0.9999079721979032
12746.17693741667,-0.0201416015625,0.011444091796875,-0.998046875,12746.17196841667,-0.0104936598032142,-0.0177293977282591,-0.0178013096088795,0.0061861332505941,0.0013631442561745,0.0026926207356154,0.0023905765265226,-0.0021447818726301,-0.0023297071456909,-0.0089465738925951,-0.0088174119915793,-0.00516749334989,0.9999077584377482
12746.18687341667,-0.0188446044921875,0.015472412109375,-1.00384521484375,12746.18190541667,-0.0104588139252567,-0.0175987907247505,-0.017784964797997,0.0008291848935186,0.0191043242812156,0.001300586387515,-0.002546502277255,-0.0063398648053407,0.0016401410102844,-0.0089379124629327,-0.0087523139139407,-0.0051507286286617,0.9999084739215468
12746.19681041667,-0.0176239013671875,0.0131988525390625,-1.004226684570312,12746.19184241667,-0.0104368646333147,-0.0173667207300752,-0.0177015637811946,0.0097851287573575,0.0252150148153305,0.0017272247932851,-0.0014814771711826,-0.0022281575947999,-0.0041526556015014,-0.0088955231940342,-0.0086366083152011,-0.0051411560300086,0.9999099130540968
12746.20674741667,-0.0181121826171875,0.013427734375,-1.000259399414062,12746.20177941667,-0.0104074797982611,-0.0171329992614568,-0.0177108534431104,-0.0068846615031361,0.0195012018084526,0.0053786849603056,-0.0004944279789924,-0.0045110061764717,-0.0045302510261535,-0.0088994414430352,-0.0085198640944765,-0.0051274643506934,0.9999109642838534
12746.21668441667,-0.016754150390625,0.0125885009765625,-1.000686645507812,12746.21171541667,-0.0103529944172118,-0.0168489662286802,-0.0177915403513975,-0.0128296352922916,0.0361941307783126,0.0070970896631479,-0.0012666806578636,-0.0043627973645925,-0.0005595684051513,-0.0089388244549203,-0.0083778904002544,-0.0051011459701115,0.9999119862452212
12746.22662141667,-0.01116943359375,0.0149078369140625,-1.0072021484375,12746.22165241667,-0.0102641521206801,-0.0164982533883459,-0.0179302750647484,-0.015969768166542,0.0257593318819999,0.0098356176167726,-0.0002592951059341,-0.0053407456725835,-0.0009834170341491,-0.0090069265174605,-0.0082025850740275,-0.0050577206009595,0.9999130704595004
12746.23655841667,-0.0109405517578125,0.0163421630859375,-1.006088256835938,12746.23158941667,-0.0102070505331545,-0.0164121133626474,-0.0180174113734693,-0.001616396009922,-0.0093918982893228,0.0021804948337376,0.0052392799407243,-0.0031085293740034,-0.0074990987777709,-0.0090500402575792,-0.0081595505854886,-0.0050292008177449,0.9999131544037556
12746.24649441667,-0.0133209228515625,0.0152130126953125,-1.005294799804688,12746.24152641667,-0.0101790593771836,-0.0165904371627916,-0.0180187011097167,0.0021815379150211,-0.0270771514624357,0.0011618356220424,0.0056464318186044,-0.0016754940152168,-0.0063881874084472,-0.0090510180215149,-0.0082488280572184,-0.0050143941606882,0.9999124849975828
12746.25643141667,-0.014984130859375,0.014312744140625,-1.001708984375,12746.25146341667,-0.0101737395977656,-0.0168960445644861,-0.0179533246347412,0.0087219951674342,-0.027789082378149,0.0018577193841338,0.0035715941339731,-0.0027392785996198,-0.0055986642837524,-0.0090190766581764,-0.0084018112709783,-0.0050106291463482,0.9999114985138045
12746.26636841667,-0.01739501953125,0.012786865234375,-1.001785278320312,12746.26140041667,-0.0101539414030005,-0.017028401853169,-0.0178552327633431,0.0076386211439967,-0.0005425466224551,0.0035347123630344,0.002040734514594,-0.0035414714366197,-0.0020133256912231,-0.0089702831881909,-0.0084683263390395,-0.0050005540094479,0.9999113914663472
12746.27630541667,-0.01641845703125,0.0128021240234375,-1.002166748046875,12746.27133741667,-0.0101446278245859,-0.0170406404135547,-0.0178434650086637,-0.0037168310955166,0.0002850303426384,-0.0029535472858697,-0.0003579165786504,-0.005055584013462,-0.0020896196365356,-0.0089643908863824,-0.0084745170599338,-0.004995893090729,0.9999114246681798
12746.28624241667,-0.0182342529296875,0.01300048828125,-1.000823974609375,12746.28127341667,-0.0101828750296516,-0.0169546968322972,-0.0179535021244211,-0.0168760418891906,0.0214987061917781,-0.0050483900122344,0.0005326960235834,-0.005150344222784,-0.0024716258049011,-0.009019351373981,-0.0084310936335779,-0.0050149314862958,0.9999111698356954
12746.29617941667,-0.0151824951171875,0.01556396484375,-1.00537109375,12746.29121041667,-0.0101869115848095,-0.0166975204361395,-0.0180574138219154,0.0001476821489632,0.0269265957176685,0.0039598857983946,-0.0015402305871248,-0.0050558745861053,-0.0011264085769653,-0.0090706735616644,-0.0083022292746951,-0.005017672741942,0.999911865580687
12746.30611541667,-0.015167236328125,0.0130157470703125,-1.00042724609375,12746.30114741667,-0.010159060109864,-0.0164631858238088,-0.0180672324857777,-0.0071600321680307,0.0226144045591354,0.0023207101039588,0.0012772604823112,-0.0025022160261869,-0.0056697726249694,-0.0090748811047433,-0.0081851737862907,-0.0050047706534818,0.9999127919735388
12746.31605241667,-0.01165771484375,0.0160980224609375,-1.007247924804688,12746.31108441667,-0.0101226876501895,-0.0162894973242493,-0.0180948732622131,0.0013972371816635,0.0064398953691124,0.00333111314103,0.0011188741773366,-0.0050780698657035,-0.0007236003875732,-0.0090881179052451,-0.0080984307671283,-0.0049872606609729,0.99991351276545
12746.32598941667,-0.012908935546875,0.01422119140625,-1.003189086914062,12746.32102141667,-0.0101174385684039,-0.0163553496777557,-0.0180476929567794,0.0063246176578104,-0.0181006006896495,-0.0006553726270794,0.0046942438930273,-0.0019486248493194,-0.007544457912445,-0.0090646721198666,-0.0081314985177016,-0.0049845307897645,0.9999135322122564
12746.33592641667,-0.0145263671875,0.0145263671875,-1.002456665039062,12746.33095841667,-0.0101290852743575,-0.0164656365550018,-0.0179846651798187,0.0044076740741729,-0.0035618720576167,-0.0003584302030503,0.0035532936453819,-0.0037624351680278,-0.0034863352775573,-0.0090334837231872,-0.0081867464832727,-0.0049901147469153,0.9999133136180688
12746.34586341667,-0.0150146484375,0.014251708984375,-1.00164794921875,12746.34089441667,-0.0101241653727371,-0.0164746176304874,-0.0179704108986978,0.0005881688557565,-0.0018499922007322,0.0005808668211102,0.0019448455423116,-0.0034430082887411,-0.0027537941932678,-0.0090263596642424,-0.0081912956330404,-0.004987673579345,0.9999133310077482
12746.35580041667,-0.014129638671875,0.016143798828125,-1.005767822265625,12746.35083141667,-0.0101202211735156,-0.0165224774067848,-0.0179181263177332,0.0088476967066526,-0.0113830436021089,0.0015529207885265,0.0015044286847114,-0.0036653913557529,-0.0019448995590209,-0.0090003231137602,-0.008215375720718,-0.0049857029499291,0.999913345046248
12746.36573641667,-0.014068603515625,0.0126495361328125,-1.004730224609375,12746.36076841667,-0.0101065352925079,-0.0167740748056224,-0.0178114813457947,0.0094266682863235,-0.0403257459402084,0.002326036337763,0.00264098867774,-0.0016666706651449,-0.0060670971870422,-0.0089475759990284,-0.0083414990330254,-0.0049781782689781,0.9999127429817544
12746.37567341667,-0.01995849609375,0.0145111083984375,-1.000564575195312,12746.37070541667,-0.0100635943681421,-0.0171020951964639,-0.0176954585915545,0.0159322377294302,-0.0196753293275833,0.0028461515903472,0.0030299816280603,-0.0050449296832084,-0.0050330162048339,-0.0088902032616537,-0.0085059829862391,-0.004955740627804,0.9999120087239148
12746.38561041667,-0.0158843994140625,0.0148468017578125,-1.002182006835938,12746.38064241667,-0.0100632553227148,-0.0172280051249833,-0.0174810696582821,0.0248050913214683,-0.0073763178661465,0.0001638159155845,-0.0027339737862348,-0.0029690023511648,-0.0008657574653625,-0.0087833281742558,-0.0085694807142438,-0.0049559391294842,0.9999124841628532
12746.39554741667,-0.016143798828125,0.0141143798828125,-1.003219604492188,12746.39057941667,-0.010079712833993,-0.017317914133069,-0.0172832309497895,0.0139218177646398,-0.0110987182706594,-0.0024973480030894,0.0014300625771284,-0.0024354998022317,-0.0024812817573547,-0.0086847108269068,-0.0086148645413562,-0.0049646328998938,0.9999129586923882
12746.40548441667,-0.01568603515625,0.0123291015625,-1.002059936523438,12746.40051541667,-0.0100834774732213,-0.0173569668686943,-0.0172343555608577,-0.0028736740350723,0.0015433076769113,0.0011503836140036,0.0012097191065549,-0.0031190533190965,-0.0035187005996704,-0.0086603888774094,-0.0086344982759842,-0.0049665588255123,0.9999129449740736
12746.41542141667,-0.014801025390625,0.0120849609375,-1.001739501953125,12746.41045241667,-0.0100467893002932,-0.0173069326880105,-0.0172800163399364,-0.004550932906568,0.0138063319027423,0.0060182427987456,0.0016174484044313,-0.0049499869346618,-0.0023589730262756,-0.0086829349039255,-0.0086095256760111,-0.004948234355014,0.9999130755059796
12746.42535741667,-0.0132904052734375,0.01605224609375,-1.0048828125,12746.42038941667,-0.0099992400313479,-0.0171576203261819,-0.0172689322927303,0.009584592655301,0.0113863162696361,0.0046549709513783,0.0023531969636678,-0.005183046683669,-0.0020357370376586,-0.0086768213963783,-0.0085351108875527,-0.0049251579881663,0.999913835950116
12746.43529441667,-0.0117950439453125,0.0130767822265625,-1.006851196289062,12746.43032641667,-0.0099715123280192,-0.0171855954392421,-0.017137021244859,0.0102674271911382,-0.0170531142503023,0.0005648881196975,0.0038918238133192,-0.0010838694870471,-0.0051772594451904,-0.008610821962436,-0.0085495512214065,-0.0049117435027073,0.9999143487523424
12746.44523141667,-0.0160980224609375,0.0135498046875,-1.002410888671875,12746.44026341667,-0.0099822974621698,-0.0174309960862901,-0.0170902074298343,-0.0007058610208332,-0.028378739953041,-0.0031595428008586,0.0056325234472751,-0.0040125250816345,-0.0071491003036499,-0.0085880663278664,-0.008672312942318,-0.0049162839231994,0.999913481923703
12746.45516841667,-0.0162200927734375,0.0125732421875,-1.002243041992188,12746.45020041667,-0.0100156349222627,-0.017657499420586,-0.017042110923619,0.0096559654921293,-0.0139391459524631,-0.0007073041051626,0.0015559960156679,-0.0034914128482341,-0.0027119517326354,-0.0085647230363813,-0.0087855334822728,-0.0049321916970834,0.9999126533330928
12746.46510541667,-0.01776123046875,0.0137176513671875,-1.000030517578125,12746.46013641667,-0.0100014445528371,-0.0177235191028281,-0.0169791041256638,-0.000570838805288,0.0018187789246439,0.0019422746263444,0.0014999452978372,-0.0044049769639968,-0.0025442242622375,-0.0085333228315852,-0.0088187612747074,-0.0049250950060846,0.9999126442806532
12746.47504241667,-0.0155487060546875,0.0126800537109375,-1.002227783203125,12746.47007341667,-0.009971947908084,-0.0176135124038761,-0.0169472597986355,0.0044865040108561,0.0210948698222637,0.0012772837653756,-0.0001511573791503,-0.0032287277281284,-0.0003291964530944,-0.0085170018472796,-0.0087639690871983,-0.0049109581773762,0.9999133410451668
12746.48497941667,-0.0147552490234375,0.0123748779296875,-1.003631591796875,12746.48001041667,-0.0099602033294915,-0.0174279678633317,-0.0169321535069176,-0.0003878795541822,0.0148771880194544,0.0025502745993435,0.0018758811056613,-0.0042512230575084,-0.0025229454040527,-0.0085089430652622,-0.0086712932807048,-0.004905942793411,0.999914211258233
12746.49491541667,-0.0153961181640625,0.0141143798828125,-1.003448486328125,12746.48994741667,-0.0099781771108241,-0.017381428993005,-0.0169108040917828,-0.00028508156538,-0.0071759819984436,-0.0056200372055172,0.0026228222995996,-0.0045350529253482,-0.0039255619049072,-0.0084982324573546,-0.0086480030316069,-0.0049152199152814,0.9999145028108056
12746.50485241667,-0.018707275390625,0.0119781494140625,-1.000396728515625,12746.49988441667,-0.0100166976223494,-0.017398126039925,-0.0169181146740769,-0.0036553116515278,0.006366990506649,-0.0044322675094008,0.0019986424595117,-0.002802861854434,-0.0037428736686706,-0.008502095173151,-0.0086561685693021,-0.0049343756117316,0.9999143067506692
12746.51478941667,-0.015869140625,0.0137176513671875,-1.003005981445312,12746.50982141667,-0.010051148918469,-0.0172771291308836,-0.0169777362038925,-0.0092330370098352,0.014733443967998,1.441221684217453e-05,-0.0014334954321384,-0.0049987025558948,-0.0006900429725646,-0.0085317529948864,-0.0085953769585391,-0.004951855424408,0.999914480264568
12746.52472641667,-0.01568603515625,0.012908935546875,-1.003997802734375,12746.51975741667,-0.0100491021360884,-0.0171260307791909,-0.0170042945902157,0.0042548086494207,0.0160943195223808,0.0025769062340259,0.0012535769492387,-0.0032857544720172,-0.0032971501350402,-0.0085446481911777,-0.008519775274199,-0.0049513624001702,0.9999150202315226
12746.53466341667,-0.013153076171875,0.014068603515625,-1.005462646484375,12746.52969441667,-0.0100487599074378,-0.0170905530372532,-0.0169545865004151,0.002929353620857,-0.0091464212164282,-0.0036851176992058,0.0014012306928634,-0.0040447693318128,-0.0042875409126281,-0.0085197070336013,-0.0085021660900467,-0.0049515563301939,0.9999153764878695
12746.54460041667,-0.017242431640625,0.0126190185546875,-1.000213623046875,12746.53963141667,-0.0100563669447585,-0.0172461387590933,-0.0169430972988431,-0.000994814094156,-0.0157633107155561,0.0013226903975009,0.0040897335857152,-0.0028736162930727,-0.0057548284530639,-0.0085143805935998,-0.0085799490900767,-0.004954746437236,0.9999147577020776
12746.55453641667,-0.0156402587890625,0.014556884765625,-1.00274658203125,12746.54956841667,-0.0100536788732547,-0.0173132028698373,-0.0169723385353986,-0.0045530637726187,-0.0007108254358172,-0.0017195716500282,6.74128532409668e-05,-0.0043524354696273,-0.0005074739456176,-0.0085291545065802,-0.0086134151554409,-0.0049529898280834,0.9999143529715296
12746.56447341667,-0.0156402587890625,0.0148162841796875,-1.0030517578125,12746.55950541667,-0.0100697466370371,-0.0173156071973049,-0.0170078974486537,-0.0017713923007249,-0.0036741243675351,-0.0020556626841425,0.0016719792038202,-0.0024501252919435,-0.0030410885810852,-0.0085470083963792,-0.0086144586773639,-0.0049608585373063,0.999914058494258
12746.57441041667,-0.0159759521484375,0.0128021240234375,-1.00384521484375,12746.56944241667,-0.0100843621310571,-0.0174238467895138,-0.0170354247475175,-0.0083009302616119,-0.0193691980093717,-0.002205864759162,0.001780180260539,-0.0022182501852512,-0.0033485889434814,-0.008561102348264,-0.0086684406245801,-0.0049675824180071,0.9999134741414352
12746.58434741667,-0.01812744140625,0.0139617919921875,-1.000015258789062,12746.57937841667,-0.010100348879744,-0.0175902810324683,-0.0171787376081745,-0.0194230899214744,-0.0138319544494152,0.0011646319180727,0.0016108267009258,-0.0043756999075412,-0.004147469997406,-0.0086332361397975,-0.008751215216589,-0.0049742295748722,0.999912055846969
12746.59428441667,-0.015899658203125,0.013916015625,-1.000534057617188,12746.58931541667,-0.0101158617106723,-0.0175855138540477,-0.0173917179607211,-0.0256674047559499,0.012661705724895,-0.0024202491622418,-0.0005454923957586,-0.0034289807081222,-0.000321090221405,-0.0087397729071038,-0.0087482182869271,-0.0049810649940953,0.9999111130594772
12746.60422141667,-0.01470947265625,0.0153350830078125,-1.004104614257812,12746.59925241667,-0.0101445450207452,-0.0174313267803213,-0.0176836975608468,-0.0285966154187917,0.0163328722119331,-0.0028548769187182,0.0015280619263648,-0.0037666913121938,-0.0008423328399658,-0.0088854901228348,-0.0086702548113052,-0.0049948004373622,0.999910419149708
12746.61415741667,-0.013580322265625,0.013946533203125,-1.006301879882812,12746.60918941667,-0.0102016415316646,-0.0173721522958473,-0.0178946231554459,-0.0193613041192293,-0.0092036128044128,-0.0075922412797808,0.0026590246707201,-0.0025585163384675,-0.0044155716896057,-0.0089910420154857,-0.0086398702801506,-0.0050226881309929,0.9999096244290748
12746.62409441667,-0.014190673828125,0.0162811279296875,-1.004302978515625,12746.61912641667,-0.0102993331825605,-0.0176143379340336,-0.0180574418184942,-0.0133558753877878,-0.0368956923484802,-0.0132248271256685,0.0040302332490682,-0.0041098576039075,-0.0066199898719787,-0.009073479641098,-0.0087600870324224,-0.005069719874757,0.9999076204275776
12746.63403141667,-0.015655517578125,0.0146331787109375,-1.003677368164062,12746.62906341667,-0.0104362744181745,-0.0179882816550253,-0.0181582733520512,-0.0073776124045252,-0.0374729670584201,-0.0128478556871414,0.0037936735898256,-0.0018760785460472,-0.0046296119689941,-0.0091254507397731,-0.0089461527793739,-0.0051360315729106,0.9999051810573742
12746.64396841667,-0.0176544189453125,0.0159759521484375,-0.9996795654296876,12746.63900041667,-0.0105881384603816,-0.0182669941974354,-0.0182163612301429,-0.0060010245069861,-0.0127700176090002,-0.0164881311357021,0.0026074312627315,-0.0035821069031953,-0.0040100812911987,-0.0091558966956636,-0.0090846459530104,-0.0052104175322053,0.999903339839358
12746.65390541667,-0.0132904052734375,0.0163116455078125,-1.0086669921875,12746.64893641667,-0.0107249902481768,-0.0184009952367145,-0.0181453860163084,0.0213344600051641,-0.0217911433428525,-0.010028101503849,0.000742508098483,-0.0021683704107999,-1.347064971923828e-05,-0.0091213885441121,-0.0091512073476277,-0.0052785518760318,0.9999026160671746
12746.66384241667,-0.0178985595703125,0.0151214599609375,-1.003005981445312,12746.65887341667,-0.0107243895655863,-0.0186421274024927,-0.0178906160293068,0.0225991941988468,-0.0231946296989917,0.00505604268983,0.0053476616740226,-0.0015779491513967,-0.0090007185935974,-0.0089946494455493,-0.0092724577898969,-0.0052783450825645,0.999902677150798
12746.67377841667,-0.013885498046875,0.014495849609375,-1.0089111328125,12746.66881041667,-0.0106481958202979,-0.0188514685768171,-0.0176162876713509,0.0424498617649078,-0.0268367677927017,0.0130204930901527,0.000948866829276,-0.0024938471615314,-0.0033388137817382,-0.0088576938545574,-0.0093782023788239,-0.0052406096529539,0.9999031247788834
12746.68371541667,-0.0211944580078125,0.0129547119140625,-0.99810791015625,12746.67874741667,-0.0105749434900621,-0.0191364103780229,-0.0171407362273671,0.0362769216299057,-0.0244729481637477,-0.0034285220317542,0.0052469335496425,-0.0026439782232046,-0.0092411041259765,-0.0086203391796832,-0.0095222605986329,-0.0052050108754419,0.9999040340394344
12746.69365241667,-0.0189666748046875,0.0125732421875,-1.000869750976562,12746.68868441667,-0.0105786217277618,-0.0193128387192295,-0.0169492882400195,0.0076668509282171,-0.0142405498772859,0.0036464319564402,-0.0018855929374694,-0.0039936956018209,0.0015619993209838,-0.008525101065808,-0.0096109642758419,-0.0052070178217772,0.9999040197464336
12746.70358941667,-0.01739501953125,0.0132598876953125,-1.004058837890625,12746.69862141667,-0.0105605960927724,-0.0193867906561331,-0.0168518527531639,0.0109209679067134,-0.0060084518045187,0.0022791647352278,0.0004161484539508,-0.0042777452617883,-0.0011996030807495,-0.0084764944567986,-0.0096482756519597,-0.0051981655156857,0.9999040232005462
12746.71352641667,-0.0186004638671875,0.0133514404296875,-1.004165649414062,12746.70855741667,-0.0105263283222302,-0.0194814235212781,-0.0167877800488085,0.00525136385113,-0.0149548090994358,0.0029651946388185,0.0020824261009693,-0.003527034074068,-0.004389464855194,-0.0084445411662441,-0.0096959041338577,-0.0051809457276246,0.9999039074406146
12746.72346341667,-0.0155181884765625,0.0125274658203125,-1.00146484375,12746.71849441667,-0.0105022894515676,-0.0196097447470347,-0.016713107513321,0.0050811879336833,-0.011570131406188,0.0013526510447263,0.0010052863508462,-0.0033608190715312,-0.0044975280761718,-0.0084074232768758,-0.0097603587838799,-0.0051687531318989,0.999903696263966
12746.73340041667,-0.01873779296875,0.0127105712890625,-1.0010986328125,12746.72843141667,-0.0104955524940652,-0.019689767233963,-0.0167461213005879,-0.011179007589817,-0.0055724261328578,0.0002671461552381,0.0041675474494695,-0.0042178034782409,-0.0017988681793212,-0.0084241023282684,-0.0098003064866691,-0.0051648853499062,0.9999031873597868
12746.74333641667,-0.01788330078125,0.0133514404296875,-1.001724243164062,12746.73836841667,-0.0104924170457592,-0.0196301754094318,-0.0169088079088244,-0.0214465595781803,0.0147986263036727,-0.0013025207445025,0.0008883159607648,-0.0041973609477281,-0.0014342069625854,-0.0085052681375158,-0.0097700928724874,-0.0051627666593212,0.9999028448123513
12746.75327341667,-0.0159454345703125,0.0172882080078125,-1.005813598632812,12746.74830541667,-0.0104703676954445,-0.0194497411973529,-0.0171031974035068,-0.0107654202729463,0.0170829184353351,0.004595449194312,0.0015623718500137,-0.0037508551031351,-0.0020595788955688,-0.0086018811586942,-0.0096794617590603,-0.0051515610403132,0.9999029246312072
12746.76321041667,-0.016204833984375,0.01385498046875,-1.004302978515625,12746.75824241667,-0.0104463480764848,-0.0193109510027181,-0.017105421602775,0.0071627143770456,0.009167737327516,0.0015298840589821,0.0033614914864301,0.0001836903393268,-0.0061463117599487,-0.0086025200867481,-0.0096101706362315,-0.0051401384418564,0.999903661666722
12746.77314741667,-0.017578125,0.01373291015625,-1.003082275390625,12746.76817841667,-0.0104328672430147,-0.019199572003296,-0.0169978472797977,0.0099012432619929,0.0132357506081461,-0.0006196862086653,0.002990785986185,-0.0031419787555933,-0.0046316981315612,-0.0085483871895267,-0.0095548291453786,-0.0051343962874217,0.9999047158769384
12746.78308366667,-0.0169525146484375,0.0121307373046875,-1.004150390625,12746.77811541667,-0.0104185433102398,-0.0190776743206411,-0.0168906343152148,0.0094999046996235,0.0100913560017943,3.145681694149971e-05,0.0014956723898649,-0.0031568519771099,-0.0034068822860717,-0.0084944049789049,-0.0094942309943604,-0.0051282697395168,0.9999057728253384
12746.79302066667,-0.01824951171875,0.0161590576171875,-1.002548217773438,12746.78805166667,-0.010413914620551,-0.0190287156067917,-0.0168268894614336,0.0008928342722356,-0.0008581653237342,0.0014413343742489,0.0020723603665828,-0.004695288836956,-0.0044729709625244,-0.0084623883018644,-0.0094699423041308,-0.0051264682795898,0.9999062625082172
12746.80295666667,-0.0182342529296875,0.0129241943359375,-1.003005981445312,12746.79798866667,-0.0103980836276866,-0.019048470683128,-0.0168341802821253,-0.0049538696184754,-0.0028099957853555,0.0003249375149607,0.0007951091974973,-0.0006742570549249,-0.0028712749481201,-0.0084660092914235,-0.0094798670131416,-0.0051184352503866,0.9999061409121732
12746.81289366667,-0.017547607421875,0.0138397216796875,-1.002273559570312,12746.80792566667,-0.0103828124283358,-0.019069646063878,-0.0167963725095119,0.0083811106160283,0.001096062362194,0.0024623903445899,0.0008315499871969,-0.0038713216781616,-0.003328800201416,-0.0084470882696566,-0.0094906172793294,-0.0051108914134221,0.9999063138629736
12746.82283066667,-0.015350341796875,0.0132293701171875,-1.002914428710938,12746.81786266667,-0.0103695019091721,-0.0190850363139379,-0.0167173579300463,0.0060119624249637,-0.0071280449628829,0.0007246774621307,0.0015336032956838,-0.0028767883777618,-0.0025953650474548,-0.0084075608851508,-0.0094985759357568,-0.0051045504998687,0.9999065974578764
12746.83276766667,-0.0160675048828125,0.01275634765625,-1.005233764648438,12746.82779866667,-0.0103431919898907,-0.0191805081577189,-0.0166528117905811,0.008039959706366,-0.0116421356797218,0.0047128945589065,0.003826331347227,-0.0034226030111312,-0.0032370090484619,-0.008375409153971,-0.0095465876833164,-0.0050913064270915,0.9999064533773075
12746.84270466667,-0.0147247314453125,0.0133514404296875,-1.00311279296875,12746.83773566667,-0.0102968915737014,-0.0193390288629045,-0.016457621471099,0.0270338915288448,-0.0208707880228757,0.0005051000043749,0.0032676998525857,-0.0037004612386226,-0.0055561661720275,-0.0082780038915236,-0.0096265446918737,-0.0050684423362969,0.9999066162509334
12746.85264166667,-0.0181427001953125,0.011962890625,-0.998565673828125,12746.84767266667,-0.0102810922539827,-0.0195094684798421,-0.0162581195863535,0.0122304437682032,-0.0123440455645322,0.0006061671301722,0.0047809239476919,-0.0029058959335088,-0.00343519449234,-0.0081786173501734,-0.0097123423163955,-0.005060814994905,0.9999066705870396
12746.86257766667,-0.017059326171875,0.0120849609375,-1.001495361328125,12746.85760966667,-0.0102765768802793,-0.0195172694459229,-0.0162196404539573,-0.0018456941470503,0.009252592921257,-0.0008143628947436,0.0013707634061574,-0.0042559690773487,0.0011123418807983,-0.0081593773564236,-0.0097163612217268,-0.0050587141349918,0.9999068047652976
12746.87251466667,-0.01654052734375,0.0125885009765625,-1.004653930664062,12746.86754666667,-0.0102547085046521,-0.0194157873307028,-0.0162366121150542,-0.0012936210259795,0.0071945348754525,0.0023352243006229,0.0023526810109615,-0.0041508693248033,-0.0018156170845031,-0.0081674998934414,-0.0096656697923249,-0.0050481121745745,0.9999072975301948
12746.88245166667,-0.020721435546875,0.0124359130859375,-1.001251220703125,12746.87748366667,-0.0102400224510349,-0.0193724499431613,-0.0162207355682542,-0.0025964388623833,0.006488530896604,0.002486225683242,0.002828162163496,-0.0036314558237791,-0.0049731135368347,-0.008159382333853,-0.0096441045514608,-0.0050410241274029,0.999907586446148
12746.89238866667,-0.0200347900390625,0.0132904052734375,-0.9993896484375,12746.88742066667,-0.01023019921802,-0.0191703676549702,-0.0163110398675388,-0.0136706624180078,0.0322747863829135,0.0012015169486403,-0.0015547908842563,-0.003874335438013,-0.0015679597854614,-0.0082039740460974,-0.0095428783368383,-0.005036502729251,0.9999082147139186
12746.90232566667,-0.0173492431640625,0.0129852294921875,-1.003982543945312,12746.89735666667,-0.0102076523828839,-0.0188153237088054,-0.0164785652889811,-0.0176129397004842,0.0334636233747005,0.0055661718361079,-0.0012231301516294,-0.0031873453408479,0.0002976059913635,-0.0082867295000768,-0.0093650312965643,-0.0050258952813103,0.9999092439707128
12746.91226266667,-0.0160064697265625,0.01593017578125,-1.006866455078125,12746.90729366667,-0.0101694091159686,-0.0185279739287108,-0.016562722789498,0.0044087395071983,0.0192188397049903,0.0027189860120415,0.0011751297861337,-0.0035766679793596,-0.004291296005249,-0.0083279059481199,-0.0092213106605646,-0.0050075743485349,0.9999103281752472
12746.92219966667,-0.01531982421875,0.0125579833984375,-1.006332397460938,12746.91723066667,-0.0101681212645432,-0.0184499505514999,-0.0164684860575255,0.0122155304998159,-0.0067648226395249,-0.0022086610551923,0.0024399328976869,-0.0005374979227781,-0.0071722269058227,-0.0082805903414896,-0.0091825507257667,-0.0050076918581031,0.9999111022198274
12746.93213566667,-0.0171661376953125,0.011688232421875,-0.99981689453125,12746.92716766667,-0.0101631942117036,-0.0185157090768502,-0.016390311339149,0.0035480060614645,-0.0003993026912212,-0.0003184825181961,0.0031923409551382,-0.0038315244019031,-0.0066381096839904,-0.0082416490399784,-0.0092156496928147,-0.0050053201124321,0.9999110595099288
12746.94207266667,-0.0146636962890625,0.014068603515625,-1.003509521484375,12746.93710466667,-0.0101500180986872,-0.0184262571435775,-0.016375299517576,0.0059328665956854,0.0130533892661333,0.0038975677452981,0.0012566056102514,-0.0046862661838531,-0.0001206994056701,-0.0082338598725074,-0.0091710210488237,-0.0049991709250149,0.9999115205564506
12746.95200966667,-0.0157012939453125,0.0122528076171875,-1.00274658203125,12746.94704166667,-0.010141734171122,-0.01831813674413,-0.0162782102605637,0.0060162236914038,0.0063046067953109,-0.0021526014897972,0.003650989383459,-0.0022088177502155,-0.0038097500801086,-0.0081850114403671,-0.0091172494182373,-0.0049959210087063,0.9999124378009407
12746.96194666667,-0.016448974609375,0.013916015625,-1.002349853515625,12746.95697766667,-0.0101266803498562,-0.0182722501211637,-0.0162492289579773,0.0008813827298581,0.000182531774044,-0.0016303556039929,0.0025675278156995,-0.0039956383407115,-0.0030454993247985,-0.0081703386121129,-0.0090944437527423,-0.0049887153029437,0.9999128467675636
12746.97188366667,-0.0181427001953125,0.0123748779296875,-1.001998901367188,12746.96691466667,-0.0101384482067952,-0.0182478884953234,-0.0162484508229585,-0.0026252008974552,0.0070062838494777,-0.0016260945703834,0.0017954912036657,-0.0023316517472267,-0.0026482939720153,-0.0081699423161409,-0.0090822179999846,-0.0049947018438111,0.9999129233353105
12746.98182066667,-0.016448974609375,0.0145721435546875,-1.00408935546875,12746.97685166667,-0.0101527523971541,-0.0181754165766145,-0.0162327761437218,0.0101553089916706,0.0052699018269777,0.0001190747134387,2.931989729404449e-05,-0.0038571152836084,-0.0022957921028137,-0.0081619893033285,-0.0090459670515482,-0.0050022208654208,0.9999132870176062
12746.99175666667,-0.0154571533203125,0.012847900390625,-1.005172729492188,12746.98678866667,-0.0101604094225042,-0.0182010602642634,-0.016113435894394,0.0141332726925611,-0.0118229985237121,-0.0004231445491313,0.0017487201839685,-0.0015405286103487,-0.0043847560882568,-0.0081024233544652,-0.0090590641923702,-0.0050064899258892,0.9999136142463324
12747.00169366667,-0.017120361328125,0.013336181640625,-1.001861572265625,12746.99672566667,-0.0101297717131608,-0.0183688054021017,-0.0159577942736898,0.0163900349289178,-0.0184774380177259,0.0035715973936021,0.0029082801192998,-0.0031091477721929,-0.005468726158142,-0.0080248892023315,-0.0091434534924627,-0.0049912106897677,0.99991354427079
12747.01163066667,-0.0172576904296875,0.0113525390625,-0.99920654296875,12747.00666266667,-0.0100937741347416,-0.0184505490003025,-0.0158621037189791,0.0010595484636724,0.0030572805553674,0.00223602168262,0.0013268217444419,-0.0025251898914575,-0.0021575093269348,-0.0079770865135191,-0.0091847108436552,-0.0049733285840822,0.9999136716539871
12747.02156766667,-0.01605224609375,0.0120697021484375,-1.002914428710938,12747.01659966667,-0.0100817940628853,-0.0183166351136833,-0.0158731226455336,-0.0070079658180475,0.0189299881458282,-0.0001477738842368,0.0010556131601333,-0.0045198481529951,0.0004997849464416,-0.0079822080562977,-0.0091177794866391,-0.0049678226100326,0.999914247330501
12747.03150466667,-0.015777587890625,0.0149993896484375,-1.00262451171875,12747.02653566667,-0.0100647854964101,-0.0181099098853555,-0.0159543785556083,-0.0103526301681995,0.0215237066149711,0.0032416307367384,0.0020543690770864,-0.0038839317858219,-0.00320565700531,-0.0080222423753665,-0.0090142862422392,-0.0049597746155924,0.9999149007198118
12747.04144166667,-0.0150604248046875,0.0110321044921875,-1.00347900390625,12747.03647266667,-0.0100572217605365,-0.0179234231600953,-0.016044597751903,-0.009758211672306,0.0166863426566124,0.0043058306910097,0.0021425690501928,-0.0010444540530443,-0.0029137730598449,-0.0080668523358832,-0.0089208515401857,-0.0049563352769678,0.9999153424611592
12747.05137766667,-0.0163116455078125,0.01416015625,-1.00384521484375,12747.04640966667,-0.0100388957120066,-0.017803963917073,-0.016185548635407,-0.0182811263948679,0.0089076133444905,-1.015141606330872e-07,0.0027402676641941,-0.0051526688039302,-0.0037684440612792,-0.0081369435990802,-0.0088608410900554,-0.0049470241107937,0.999915468392134
12747.06131466667,-0.0155029296875,0.0127410888671875,-1.003250122070312,12747.05634666667,-0.0100296263502218,-0.0177803626390755,-0.0162978443359493,-0.0056681288406252,0.0002707159146666,0.001594865694642,0.0014654211699962,-0.0021368991583585,-0.0041360259056091,-0.0081929872222775,-0.0088487935210197,-0.004941984400396,0.9999151466531828
12747.07125166667,-0.01885986328125,0.013458251953125,-1.002960205078125,12747.06628366667,-0.0100701299725021,-0.0177302519967945,-0.0163355214846833,-0.0033133625984191,0.0143976854160428,-0.0094485972076654,0.002224026247859,-0.0035936366766691,-0.0035406947135925,-0.0082118789984919,-0.0088234781399748,-0.0049622719686544,0.9999151213482042
12747.08118866667,-0.017669677734375,0.013214111328125,-1.004058837890625,12747.07622066667,-0.0101709602890573,-0.0175047245775534,-0.0163776278134261,-0.0050883591175079,0.0267472974956035,-0.007754560559988,-0.0013583786785602,-0.0029185749590396,-0.0032474994659423,-0.0082328097016087,-0.0087102012118058,-0.0050134236096661,0.9999157106719232
12747.09112566667,-0.0140838623046875,0.0151824951171875,-1.004776000976562,12747.08615666667,-0.0102390618553065,-0.0173030432763961,-0.0163218884572933,0.0158808380365371,0.0134003674611449,-0.0051445299759507,-0.0003698002547025,-0.0031069852411746,-0.0043416619300842,-0.0082047303111198,-0.0086092337502354,-0.0050485442122881,0.9999165930114298
12747.10106266667,-0.0135955810546875,0.01409912109375,-1.003204345703125,12747.09609366667,-0.010254568359705,-0.01715530609444,-0.0160922407506976,0.0273124575614929,0.0129249924793839,-0.0012674999888986,0.0030683819204568,-0.0009089838713407,-0.0050525665283203,-0.0080896095305511,-0.0085359046731654,-0.0050578926901806,0.9999180761824006
12747.11099966667,-0.0126495361328125,0.0120697021484375,-1.002670288085938,12747.10603066667,-0.0102991540180377,-0.0170988293163346,-0.0159197032364752,0.0085571454837918,-0.0011803740635514,-0.0057741007767617,0.0035002492368221,-0.0018198397010564,-0.0034772157669067,-0.0080033949047931,-0.0085079385943376,-0.0050811533212159,0.999918864188879
12747.12093566667,-0.0161285400390625,0.0117950439453125,-1.001327514648438,12747.11596766667,-0.0103607279686479,-0.0170485938323476,-0.015834742978773,0.0056311306543648,0.0139961820095777,-0.0046816724352538,0.0043960958719253,-0.003764308989048,-0.0029409527778625,-0.007961051922955,-0.0084827995682696,-0.0051125027629169,0.999919236937011
12747.13087266667,-0.013519287109375,0.0118865966796875,-1.00335693359375,12747.12590466667,-0.0104202588050201,-0.016927526763717,-0.0158426762091395,-0.0067847929894924,0.0092523600906133,-0.0083741452544927,0.0007960572838783,-0.0040469020605087,-0.0015962123870849,-0.007964958985794,-0.0084220125726403,-0.0051427136928044,0.9999196177936304
12747.14080966667,-0.014862060546875,0.0129547119140625,-1.003738403320312,12747.13584166667,-0.0104897996020083,-0.0168532828413304,-0.0159268866673305,-0.0087781688198447,0.0092986989766359,-0.0049945935606956,0.0033310614526271,-0.0040395483374595,-0.003625750541687,-0.0080071613247803,-0.0083843929060695,-0.0051774203716399,0.999919430168477
12747.15074666667,-0.0171051025390625,0.0142059326171875,-1.003585815429688,12747.14577866667,-0.0105070430763532,-0.0168111626203562,-0.015962214381,0.0016009691171348,0.00483900308609,-0.0011222243774682,0.0019461698830127,-0.0030067581683397,-0.0040070414543151,-0.0080247867609453,-0.0083631714298299,-0.005186060806694,0.9999194282246736
12747.16068366667,-0.015045166015625,0.011688232421875,-1.0028076171875,12747.15571466667,-0.0105097795551194,-0.016693055273623,-0.0159413979995769,-0.0002134428359568,0.0148042850196361,-0.0018972042016685,-0.0004149433225393,-0.001734722405672,-0.0038521885871887,-0.0080140843844704,-0.0083041667881395,-0.0051879900494558,0.999920010543803
12747.17062066667,-0.014801025390625,0.012603759765625,-1.003189086914062,12747.16565166667,-0.0105144721788379,-0.0165686333570836,-0.0159372176452517,-0.001388962380588,0.0092537580057978,-0.001181213883683,0.0015206057578325,-0.0042482409626245,-0.0030718445777893,-0.0080116909723011,-0.0082419531453994,-0.0051908521457214,0.9999205266113924
12747.18055666667,-0.01715087890625,0.013885498046875,-1.004898071289062,12747.17558866667,-0.0105135148948473,-0.016434340147283,-0.0158782942030627,0.0184574462473392,0.0189969316124916,0.0013485229574143,0.0016305036842823,-0.0032737981528043,-0.0034501552581787,-0.0079818792304912,-0.0081749726018459,-0.0051911548683187,0.999921299336011
12747.19049366667,-0.0149078369140625,0.0113677978515625,-1.001129150390625,12747.18552566667,-0.0105482832715062,-0.0161827234897208,-0.0156239697065609,0.0194995421916246,0.0312880203127861,-0.0075355158187448,-0.0009708348661661,-0.0017377668991684,-0.0051510334014892,-0.0078542139797407,-0.0080497144037765,-0.0052105761818833,0.9999231876037222
12747.20043066667,-0.01336669921875,0.0098114013671875,-1.0006103515625,12747.19546266667,-0.010607913344398,-0.0158188096460027,-0.0155516065859659,-0.0068444469943642,0.0399283803999424,-0.005071026738733,0.000908400863409,-0.0041831135749816,-0.001375138759613,-0.0078173215876204,-0.0078677313750406,-0.0052421057123073,0.999924751191898
12747.21036766667,-0.011474609375,0.012115478515625,-1.004974365234375,12747.20539966667,-0.0106279258829555,-0.0154283732665915,-0.0157168722852235,-0.0251856390386819,0.0343182310461998,-0.0021753716282546,0.0020591570064425,-0.0059047564864158,-0.0008528232574462,-0.0078990015728487,-0.0076720054922434,-0.0052529964114389,0.9999255677024756
12747.22030466667,-0.0126190185546875,0.0132293701171875,-1.00030517578125,12747.21533566667,-0.0106491201145618,-0.0150808994167289,-0.0160001570457694,-0.0317713692784309,0.0345656387507915,-0.0019665798172354,0.0036037880927324,-0.0038839261978864,-0.0052160620689392,-0.0080397995080461,-0.0074974345204693,-0.0052638906636544,0.9999257881241572
12747.23024166667,-0.0131072998046875,0.013031005859375,-1.000244140625,12747.22527266667,-0.0107082828916778,-0.0146965341342226,-0.0163667903512225,-0.0437742322683334,0.0427257977426052,-0.009219566360116,0.0020750192925333,-0.0031366217881441,-0.0005470514297485,-0.0082223068494654,-0.0073040359060251,-0.0052936599908568,0.9999255760587444
12747.24017866667,-0.01300048828125,0.013671875,-1.005477905273438,12747.23520966667,-0.0108014509762702,-0.0142930320998288,-0.0168240842407951,-0.0491133406758308,0.0362777523696422,-0.0114222662523388,0.0011832229793071,-0.0037922170013189,-0.0004878044128417,-0.0084501993943818,-0.0071006685076258,-0.0053402552268455,0.9999248864970066
12747.25011466667,-0.011077880859375,0.0161590576171875,-1.0091552734375,12747.24514666667,-0.010880042958937,-0.0140580081679853,-0.0172255478838016,-0.0233145002275705,0.0128551507368683,-0.0017370155546814,0.0010549733415246,-0.0035527534782886,-0.0057250261306762,-0.0086505629762226,-0.0069817295586594,-0.0053791212399429,0.999923775145402
12747.26005166667,-0.0129852294921875,0.0169525146484375,-1.006851196289062,12747.25508366667,-0.0108845824709972,-0.0140288211909362,-0.0171395385580044,0.02965097874403,-0.0039523253217339,-0.0012283518444746,0.0029484201222658,-0.0009795725345611,-0.0094005465507507,-0.008607499438678,-0.0069673545760239,-0.0053818210214993,0.9999241731583228
12747.26998866667,-0.012725830078125,0.0126953125,-1.002944946289062,12747.26502066667,-0.0109477356713674,-0.0141467546130072,-0.0168326971589519,0.0265478640794754,-0.0186076685786247,-0.0122550372034311,0.0011590486392378,0.0001206807792186,-0.0070928931236267,-0.0084546295609482,-0.0070268938894693,-0.005413979862017,0.9999248977815436
12747.27992566667,-0.013885498046875,0.0128631591796875,-0.9995269775390624,12747.27495666667,-0.0110308634199743,-0.0142617629066717,-0.016633157394575,0.0182585082948207,-0.0019069844856858,-0.0062083294615149,0.0015334775671362,-0.0039370115846395,-0.0031849145889282,-0.0083554731843654,-0.0070845986112661,-0.0054557705250611,0.9999250769422586
12747.28986266667,-0.0136871337890625,0.012359619140625,-0.99945068359375,12747.28489366667,-0.0110327545148893,-0.0141008828272845,-0.0164293922323524,0.0151868192479014,0.0353891886770725,-0.0013864100910723,0.0002130148932337,-0.0035654250532388,0.0002386569976806,-0.0082531658094839,-0.0070047244951651,-0.005458110944159,0.9999264908217378
12747.29979966667,-0.0108489990234375,0.0123138427734375,-1.002578735351562,12747.29483066667,-0.0110574076594372,-0.013688356378634,-0.0163556793467039,0.0015554288402199,0.0451211780309677,-0.0051574460230767,-1.033768057823181e-06,-0.0039952639490365,0.0003219246864318,-0.0082152696144773,-0.00679858018179,-0.0054723925856844,0.999928177273692
12747.30973566667,-0.013397216796875,0.0125274658203125,-1.001510620117188,12747.30476766667,-0.011091301494059,-0.0132166912732931,-0.0163342950479358,0.0031069866381585,0.0515181571245193,-0.0028865686617791,0.0023655453696846,-0.0040196571499109,-0.0027994513511657,-0.0082033984456545,-0.006562684895755,-0.0054913465961988,0.9999297708353904
12747.31967266667,-0.010009765625,0.0122528076171875,-1.004852294921875,12747.31470466667,-0.0111419677827638,-0.0127945438677658,-0.0162946694761746,0.0012270612642169,0.0321149006485939,-0.0067886323668062,-0.0006047207862138,-0.0037664137780666,-0.0017251968383789,-0.0081825884222668,-0.006351529303356,-0.0055185368632751,0.9999311865148708
12747.32960966667,-0.0054779052734375,0.012908935546875,-1.008575439453125,12747.32464166667,-0.0111456852314987,-0.0126378890125828,-0.0163197562311651,-0.0029535694047808,-0.0098157403990626,0.0146169234067201,0.0026261042803525,-0.0040661543607711,-0.0050653219223022,-0.0081947101695748,-0.0062731213944538,-0.0055209564423894,0.9999315865218696
12747.33954666667,-0.0146026611328125,0.0126953125,-1.000961303710938,12747.33457866667,-0.0110450061576397,-0.0128184352024158,-0.0162392179100851,0.0129494974389672,-0.0101739354431629,0.0030841049738228,0.0073384894058108,-0.0033294986933469,-0.0087894201278686,-0.0081546215611188,-0.0063640250852978,-0.0054701403164668,0.9999316504765218
12747.34948366667,-0.014617919921875,0.012115478515625,-1.0010986328125,12747.34451466667,-0.0110134044868806,-0.0127360688488754,-0.0161891490974893,0.0001170556060969,0.0265626739710569,0.0002351887524127,-0.0018686056137084,-0.003493059426546,-0.0011734366416931,-0.008129263874321,-0.0063231128597804,-0.0054548370421387,0.999932176731945
12747.35942066667,-0.018524169921875,0.010162353515625,-0.98614501953125,12747.35445166667,-0.0109566348969435,-0.0121405323185853,-0.0164124956669092,-0.0610256567597389,0.1220505833625793,0.0084478445351123,-0.0024793203920125,-0.0042962115257978,-0.0013070106506347,-0.008239134524144,-0.0060249783646141,-0.0054281920137043,0.9999332010176644
12747.36935766667,-0.0019989013671875,0.01531982421875,-1.012222290039062,12747.36438866667,-0.010890001718674,-0.0107758250580615,-0.0171328873471695,-0.0664313435554504,0.1303915977478027,0.0105847651138901,-0.0077501339837908,-0.0069696269929409,0.0136501789093017,-0.0085954231890398,-0.0053409659586395,-0.0053985412307877,0.999934246705974
12747.37929366667,-0.001251220703125,0.020172119140625,-1.015869140625,12747.37432566667,-0.0107806711969645,-0.0100530850677491,-0.0175851411711618,-0.0197272226214408,0.0198744125664234,0.0059924097731709,0.0080524608492851,-0.0022643413394689,-0.0124274492263793,-0.0088193117746833,-0.0049788604876471,-0.0053458381098095,0.9999344433055152
12747.38923066667,-0.011260986328125,0.0128173828125,-0.9982147216796876,12747.38426266667,-0.0107586569511689,-0.0100282254265946,-0.0175915202864133,0.0019397232681512,0.0014567207545042,0.0021372181363403,0.0087752854451537,0.002581575885415,-0.0160741209983825,-0.0088223801389528,-0.0049665113314234,-0.0053349252653264,0.9999345210420528
12747.39916766667,-0.0095062255859375,0.0132904052734375,-0.9997100830078124,12747.39419966667,-0.0107655207365906,-0.0097955886708457,-0.0176702354345456,-0.0150539074093103,0.0427522286772728,0.0003254697658121,-0.0014670826494693,-0.0048518646508455,0.0015811920166015,-0.008861131156056,-0.004849956716,-0.0053391884752421,0.9999347290967108
12747.40910466667,-0.0072784423828125,0.0144805908203125,-1.002975463867188,12747.40413666667,-0.0107647649871802,-0.0093739666942971,-0.0178357586424244,-0.0153468549251556,0.0431776046752929,0.0002293298020958,-0.0001338869333267,-0.0045443400740623,8.696317672729492e-05,-0.0089427602149329,-0.004638714036177,-0.0053402869016277,0.9999349596938972
12747.41904166667,-0.010406494140625,0.0161590576171875,-1.002593994140625,12747.41407266667,-0.0107848790784363,-0.0089127043637744,-0.0179535639352577,-0.013697825372219,0.0467760674655437,-0.0034098797477781,0.0016327081248164,-0.0034719388931989,-0.0031763315200805,-0.0090004710772181,-0.0044076876429261,-0.0053521400720013,0.9999354713184028
12747.42897866667,-0.00714111328125,0.0152740478515625,-1.004165649414062,12747.42400966667,-0.010798024272641,-0.0084823847009833,-0.0180568677932457,-0.0080625768750905,0.0420939959585666,-0.000518619082868,-0.0019255932420492,-0.0018967594951391,-0.0027929544448852,-0.009050995542515,-0.0041922016602701,-0.0053604271474202,0.9999358891335964
12747.43891466667,-0.007293701171875,0.014678955078125,-1.001358032226562,12747.43394666667,-0.0107914196221721,-0.0081308121156432,-0.0181614472272897,-0.0202910136431455,0.0365948341786861,-0.0016166404820978,0.0009882682934403,-0.0028863307088613,-0.0043635964393615,-0.0091023263539218,-0.0040161724699237,-0.0053585009464065,0.9999361412774928
12747.44885166667,-0.0082550048828125,0.017303466796875,-1.0025634765625,12747.44388366667,-0.0107421547126198,-0.0077591849212644,-0.0183083147180036,-0.0074183586984872,0.0465819239616394,0.0143736451864242,0.0004641059786081,-0.0036282669752836,-0.0015557408332824,-0.0091746654798677,-0.0038301979612825,-0.005335272959457,0.9999363067373572
12747.45878866667,-0.0022735595703125,0.0150909423828125,-1.0048828125,12747.45382066667,-0.0106162977218708,-0.0072054563675483,-0.0183106942561759,-0.0020968299359083,0.0515364706516265,0.0023438795469701,-0.0010508177801966,-0.0010061357170343,-0.0027570724487304,-0.0091741531454241,-0.0035539217092432,-0.0052748834695648,0.99993775022091
12747.46872566667,-0.0031280517578125,0.0151519775390625,-1.003997802734375,12747.46375766667,-0.0106209676576048,-0.0068496407197001,-0.0183102317606117,0.0076689813286066,0.0219588354229927,0.0003298637457191,0.0045748800039291,-0.0032181981950998,-0.0050739049911499,-0.0091729910118432,-0.0033760046734804,-0.005278851055915,0.9999383776258476
12747.47866266667,-0.0029449462890625,0.01318359375,-1.001358032226562,12747.47369366667,-0.0106222997107484,-0.0066077195037305,-0.0181922733549681,0.0101539772003889,0.0300726853311061,0.0012664976529777,0.0034785270690917,-0.0030392222106456,-0.0041850805282592,-0.0091133795008301,-0.0032553605879753,-0.0052808245649834,0.999939257662072
12747.48859966667,-0.0014190673828125,0.0147552490234375,-1.006118774414062,12747.48363066667,-0.0105940861865441,-0.0064329438407231,-0.0182022404845489,-0.009195752441883,0.0033121118322014,0.0020185746252536,0.0034868884831666,-0.0050175730139017,-0.0015443563461303,-0.009117856887406,-0.0031680801788704,-0.0052674989534453,0.9999395314041174
12747.49853666667,-0.0107421875,0.0164031982421875,-0.9980316162109376,12747.49356766667,-0.010602528216375,-0.0063076173540729,-0.0181815785975605,0.0112341549247503,0.038996871560812,-0.0050883372314274,0.0048874663189053,-0.0034252572804689,-0.0063039660453796,-0.0091072096214391,-0.0031054373063478,-0.0052723241594214,0.9999397950633216
12747.50847266667,-0.0018768310546875,0.01361083984375,-1.003997802734375,12747.50350466667,-0.010649182944602,-0.0056864515265437,-0.0181134396930731,0.0027578461449593,0.0762216746807098,-0.0015202339272946,-0.0050566988065838,-0.0017091818153858,0.0017881989479064,-0.0090715692508165,-0.0027948427436007,-0.0052985768171964,0.99994091939143
12747.51840966667,0.005706787109375,0.013458251953125,-1.010940551757812,12747.51344166667,-0.0106181101454598,-0.0052947257135936,-0.0181166747757902,-0.0071693528443574,-0.0171895008534193,0.0096679721027612,0.0034170020371675,-0.0045047737658023,-0.0041759014129638,-0.0090721085389624,-0.0025991237102236,-0.00528481375913,0.9999414942804474
12747.52834666667,-0.00323486328125,0.015594482421875,-1.003753662109375,12747.52337866667,-0.0105777624665634,-0.0059813507560368,-0.0182886821313748,-0.0250878985971212,-0.100544773042202,-0.0045881955884397,0.0116871017962694,-0.004829341545701,-0.0111256837844848,-0.0091598614487896,-0.0029421418502833,-0.0052612648732761,0.9999398738412434
12747.53828366667,-0.0131988525390625,0.017669677734375,-0.9964752197265624,12747.53331566667,-0.0106322752834437,-0.0067007241518564,-0.0185009979735968,-0.0136237908154726,-0.0332197993993759,-0.0031191958114504,0.0034646647982299,-0.0029053911566734,-0.0039472579956054,-0.0092679941422542,-0.0033009892688839,-0.0052848635106745,0.9999376791256518
12747.54822066667,-0.005645751953125,0.0147247314453125,-1.002059936523438,12747.54325166667,-0.0106439665831843,-0.0066250018201372,-0.0185329709349746,0.0038777054287493,0.0323128700256347,0.0037621464580297,-0.0065750363282859,-0.0008621625602245,0.0033311247825622,-0.0092837984986918,-0.0032629906879388,-0.0052910058943028,0.9999376353703828
12747.55815766667,-0.000152587890625,0.01641845703125,-1.006027221679688,12747.55318866667,-0.0106092697138868,-0.0063812672026106,-0.0185332418427024,-0.0041706338524818,0.0116315623745322,0.000252366065979,0.0007343767210841,-0.0038073807954788,-0.0022520422935485,-0.0092832352045169,-0.0031412914976273,-0.0052747897990362,0.9999380489149928
12747.56809466667,-0.0032806396484375,0.016265869140625,-1.00341796875,12747.56312566667,-0.0106145208734988,-0.006414914388067,-0.0185851057071241,-0.0016933614388108,-0.0162980407476425,-0.0015435367822647,0.0062611754983663,-0.0021655112504959,-0.0062204599380493,-0.0093092620671332,-0.0031579511240764,-0.0052771743209191,0.9999377935035586
12747.57803066667,-0.0054168701171875,0.0150909423828125,-1.000762939453125,12747.57306266667,-0.0106417266165679,-0.00650334172306,-0.0185837195057321,0.0014880509115755,-0.0040688058361411,-0.0030743216630071,0.0032215337269008,-0.0023167114704847,-0.0036118030548095,-0.0093088459485661,-0.0032020391294521,-0.0052903670663378,0.9999375803139672
12747.58796766667,-0.0055084228515625,0.0155181884765625,-1.002471923828125,12747.58299966667,-0.0106379794685322,-0.0064776001256522,-0.018598836638104,-0.0030355947092175,0.0081870285794138,0.0003913831897079,0.0010595647618174,-0.0035067535936832,-0.0009568929672241,-0.0093163296760756,-0.0031891460478431,-0.0052885884021532,0.999937592983856
12747.59790466667,-0.0060882568359375,0.01629638671875,-1.004150390625,12747.59293666667,-0.0106220281713234,-0.0064260949139263,-0.018604035707765,-0.0009671170264482,0.0020702807232737,-0.0003234092146158,0.0009165164083242,-0.0030847042798995,-0.002665638923645,-0.0093187674795509,-0.0031634554248958,-0.0052808446110307,0.9999377077521038
12747.60784166667,-0.0062713623046875,0.016326904296875,-1.001449584960938,12747.60287366667,-0.0106159036091613,-0.0064147805343627,-0.0186114040107841,-0.0019000228494405,0.0004026759415864,6.274878978729248e-05,0.0003253696486353,-0.0023138746619224,-0.0043441653251647,-0.0093224116519889,-0.0031578073943742,-0.005277823128129,0.9999377292752332
12747.61777866667,-0.00408935546875,0.0164031982421875,-1.002105712890625,12747.61280966667,-0.010627161920365,-0.0063896433529199,-0.0186258556145608,-0.0009751068428158,0.0054040923714637,-0.0008736182935535,0.0001171305775642,-0.0022978074848651,-0.001643419265747,-0.0093295887730725,-0.0031451486351503,-0.0052835458853756,0.9999376289032852
12747.62771566667,-0.005035400390625,0.0161285400390625,-1.002151489257812,12747.62274666667,-0.0106111364676,-0.0063465124773327,-0.0186237317392748,-0.0017570108175277,0.0057422462850809,0.0018510618247091,0.0022560143843293,-0.0022193882614374,-0.0022992491722106,-0.0093283879716984,-0.0031236649775121,-0.0052757383001336,0.9999377441260908
12747.63765166667,-0.00274658203125,0.0170440673828125,-1.003219604492188,12747.63268366667,-0.0106011597692594,-0.0063141640030959,-0.0186293791178834,-0.0042491964995861,0.0030157025903463,-0.0016246295999735,0.001277626492083,-0.0024996940046548,-0.0023449659347534,-0.0093311107997389,-0.0031075232798589,-0.0052708921700859,0.9999377786469524
12747.64758866667,-0.0028076171875,0.0160369873046875,-1.003982543945312,12747.64262066667,-0.0106061625628924,-0.0062709658737163,-0.0186382779177349,-0.0005681756883859,0.0044470848515629,6.195018067955971e-05,0.0035232543013989,-0.0015930626541376,-0.0034129619598388,-0.0093354540866878,-0.00308587858909,-0.0052735809473542,0.9999377594935328
12747.65752566667,-0.002349853515625,0.01507568359375,-1.002151489257812,12747.65255766667,-0.0106053668515774,-0.00623611680789,-0.0186423543133561,-0.0015498166903853,0.0030007222667336,-0.0001031658612191,0.0034273765049874,-0.0026042181998491,-0.0041757225990295,-0.0093373993734486,-0.0030684480919211,-0.0052733395086888,0.9999377612133222
12747.66746266667,-0.0030364990234375,0.0157012939453125,-1.00396728515625,12747.66249466667,-0.010607484128632,-0.0062219714109393,-0.0186578807672632,-0.0022731311619281,-0.0008408548310399,-5.403067916631699e-05,0.0038709957152605,-0.0035810451954603,-0.0023449063301086,-0.009345128164814,-0.0030613245844426,-0.0052744396469036,0.9999376937701624
12747.67739966667,-0.0056610107421875,0.0157012939453125,-1.001800537109375,12747.67243066667,-0.0106190463367248,-0.0062252627201941,-0.0186774315150746,-0.0013948213309049,-0.0008480446413159,-0.0019158464856445,0.0031876382417976,-0.0029749833047389,-0.0041610598564147,-0.0093549285085507,-0.0030628636733903,-0.0052801736545924,0.99993765292415
12747.68733666667,-0.0051116943359375,0.015411376953125,-1.002655029296875,12747.68236766667,-0.0106217930307121,-0.0062188209352513,-0.0186835460997336,0.0022803414613008,0.0004387618973851,9.485986083745956e-06,0.0005566859617829,-0.0029810983687639,-0.0019943714141845,-0.0093579732138282,-0.0030596139387411,-0.0052815676175037,0.9999375833881188
12747.69727366667,-0.005218505859375,0.0160980224609375,-1.002609252929688,12747.69230466667,-0.0106113840504314,-0.0061852937427709,-0.0186857271936737,0.0002177231945097,0.0021160198375582,0.0008979164995253,0.0010724808089435,-0.003273194655776,-0.002848744392395,-0.0093589596214751,-0.0030428943696423,-0.0052765170673536,0.9999376193652072
12747.70720966667,-0.0051727294921875,0.0160369873046875,-1.004653930664062,12747.70224166667,-0.0106089777960459,-0.0061723174789291,-0.0186867781770558,-0.0033517116680741,0.0020996406674385,0.000333858653903,0.0009526954963803,-0.0025875996798276,-0.0028029084205627,-0.0093594461948095,-0.0030364147875642,-0.0052753725354099,0.999937746730472
12747.71714666667,-0.0066375732421875,0.01519775390625,-1.003692626953125,12747.71217866667,-0.0105998758696817,-0.0061401360230388,-0.0186906357784308,-0.0012368955649435,0.0035374816507101,0.001463571563363,0.0009662960655987,-0.0026524905115365,-0.0048474669456481,-0.0093612764627389,-0.0030203574482427,-0.0052709665605352,0.9999377781159592
12747.72708366667,-0.0024566650390625,0.015625,-1.00299072265625,12747.72211566667,-0.0106062953761171,-0.0060811364302072,-0.0187069600765433,-0.0025583561509847,0.0058852257207036,-0.0009893330279737,-0.0005575371906161,-0.0035080444067716,-0.0038861036300659,-0.0093692923943412,-0.0029907859857217,-0.0052744271520906,0.999937753464461
12747.73702066667,-0.00347900390625,0.0164794921875,-1.004119873046875,12747.73205266667,-0.0106033089549665,-0.0060321231952194,-0.0187262085131301,-0.0009101256728172,0.0048367390409111,0.0010620998218655,0.0035743648186326,-0.0031000450253486,-0.0031842589378356,-0.0093787821482467,-0.0029662435388261,-0.0052731340443009,0.999937762675458
12747.74695766667,-0.00115966796875,0.0171356201171875,-1.002517700195312,12747.74198866667,-0.0106030791125288,-0.0059847317476001,-0.0187351049707008,-0.0009676497429609,0.0030384398996829,-0.0030684624798595,0.0025046425871551,-0.0022544488310813,-0.0043132901191711,-0.009383105086699,-0.0029425267475679,-0.0052732279898887,0.9999377620060838
12747.75689466667,-0.0032806396484375,0.01702880859375,-1.002090454101562,12747.75192566667,-0.0106074696171789,-0.0059735301343101,-0.0187489202256172,-0.0019855098798871,-0.0011997148394584,-0.0016167734283953,0.0048127775080502,-0.0016121324151754,-0.0027112960815429,-0.0093899893427845,-0.0029368689084694,-0.0052754547669815,0.9999376865374444
12747.76683166667,-0.005096435546875,0.0146636962890625,-0.99951171875,12747.76186266667,-0.0106130474402955,-0.0059777250158634,-0.018768156499753,-0.0021980302408337,0.0003024730831384,0.000146372243762,0.002695997711271,-0.0017381776124238,-0.0022844076156616,-0.0093996264005218,-0.0029388888037741,-0.0052781947306141,0.9999375478069202
12747.77676766667,-0.0059356689453125,0.01605224609375,-1.0035400390625,12747.77179966667,-0.0106244551848359,-0.0059769827782663,-0.0187756404219396,-0.0009735086932778,0.0030639059841632,-0.0011071774642914,0.000879458617419,-0.0041107703000307,0.0002941489219665,-0.009403382144488,-0.0029384438758144,-0.005283889931984,0.9999375668437044
12747.786705875,-0.0080718994140625,0.016845703125,-1.002975463867188,12747.78173666667,-0.0106213023524195,-0.0059638990203757,-0.0187684887162586,0.0004598046652972,0.0018784990534186,-0.0015461996663361,2.714525908231735e-05,-0.0027150716632604,-0.0037339329719543,-0.0093997678021257,-0.0029319364612656,-0.0052823862336116,0.9999375775552816
12747.796642875,-0.0057220458984375,0.0157470703125,-1.002914428710938,12747.791674875,-0.0106206584657385,-0.0059497564679561,-0.0187773398334466,-0.0025354530662298,0.0024255132302641,0.0010897973552346,-0.0021232259459793,-0.0019304659217596,-0.0031694173812866,-0.0094041551524973,-0.0029248451383057,-0.0052821175951691,0.9999375198625908
12747.806579875,-0.004730224609375,0.0168304443359375,-1.002029418945312,12747.801611875,-0.0106096312184274,-0.0059060964250761,-0.0187782330669132,3.582937642931938e-05,0.0056365523487329,0.0042403163388371,0.0001829755492508,-0.0030299890786409,-0.0031081438064575,-0.0094044703400909,-0.0029030659226355,-0.005276808219419,0.999937617289578
12747.816516875,-0.0027618408203125,0.01800537109375,-1.002975463867188,12747.811547875,-0.0105934875674414,-0.0058539275650485,-0.0187825799453799,-0.0027032317593693,0.0035249311476945,0.000836796592921,0.0011226376518607,-0.0019509606063365,-0.0022229552268981,-0.0094064820441423,-0.0028770472413823,-0.0052689753317722,0.9999377922986692
12747.826453875,-0.0027313232421875,0.014984130859375,-1.003952026367188,12747.821484875,-0.0105837200757302,-0.0058198099069389,-0.0187951731293217,-0.0020555509254336,0.0009389361366629,-0.0006250124424695,0.0030569094233214,-0.000788627192378,-0.0031690001487731,-0.0094126742190744,-0.0028600018721572,-0.0052642336236492,0.999937826075572
12747.836390875,-0.00152587890625,0.0171356201171875,-1.0042724609375,12747.831421875,-0.0105882775344674,-0.00579136072243,-0.0188065722782675,0.0004068077541887,-0.0006624227389693,0.0021340227685868,0.00305898161605,-0.0038212649524211,-0.0041456222534179,-0.0094183049648441,-0.0028457263679175,-0.0052666292743151,0.9999378090101736
12747.846326875,-0.002655029296875,0.015625,-1.002273559570312,12747.841358875,-0.0105661913895588,-0.0057882493788178,-0.0188031009085343,-3.634253516793251e-05,0.000851385295391,0.0028429557569324,0.0042613158002495,-0.0016663037240505,-0.0044659972190856,-0.0094165297892897,-0.0028442840172019,-0.0052556066525986,0.9999378875288704
12747.856263875,-0.0043182373046875,0.0161590576171875,-1.000442504882812,12747.851295875,-0.0105556083450668,-0.0057828908789932,-0.0188183710726404,-0.0014510136097669,-0.0010727494955062,-0.0016825539059937,0.0031268061138689,-0.0031921900808811,-0.0024673342704772,-0.009424135703943,-0.002841614383947,-0.0052503184700466,0.9999378059861777
12747.866200875,-0.004241943359375,0.01495361328125,-1.0028076171875,12747.861232875,-0.0105667108795664,-0.005791006207793,-0.0188250361930636,-0.0015229191631078,0.0019756723195314,0.0007977811619639,0.0014717108570039,-0.0026647970080375,-0.0006364583969116,-0.0094275048460836,-0.0028456016925516,-0.005255821166276,0.999937766788112
12747.876137875,-0.007049560546875,0.015960693359375,-1.003448486328125,12747.871169875,-0.0105686836664389,-0.005771539643466,-0.018823344876012,0.0012326538562774,-0.0006336933001875,-0.0009553777053952,0.0015285429544746,-0.0038685519248247,-0.0030013918876647,-0.0094266112413484,-0.0028358643138897,-0.0052569019390615,0.9999377590893505
12747.886074875,-0.0060882568359375,0.0145263671875,-1.00274658203125,12747.881105875,-0.0105710227245379,-0.0057633119368133,-0.0188129200178014,0.0004994855262339,0.0003047045320272,-0.0002441806718707,-0.0012872996740043,-0.0028510466217994,-0.0036420226097106,-0.009421381421139,-0.0028317675550191,-0.0052581257824625,0.9999377503715896
12747.896011875,-0.006072998046875,0.0172882080078125,-1.002578735351562,12747.891042875,-0.0105688125772946,-0.0057384249747083,-0.0188158063518919,-0.001494956202805,0.0035287272185087,0.000601106788963,-0.0003508785739541,-0.0042882598936557,-0.0029400587081909,-0.0094227550178766,-0.0028193273250605,-0.0052571332852778,0.9999378766538152
12747.905948875,-0.0023345947265625,0.0156097412109375,-1.001358032226562,12747.900979875,-0.0105722169304937,-0.0056900319071123,-0.0188374636551941,-0.0025269305333495,0.0021831979975104,-0.000223540700972,-0.0003840052522718,-0.001548072323203,-0.0027723312377929,-0.0094334602661074,-0.0027950586505539,-0.0052590318554553,0.999937863129145
12747.915884875,-0.0010833740234375,0.016326904296875,-1.003738403320312,12747.910916875,-0.0105753315895129,-0.0056547884837552,-0.0188416969911152,-0.0003929398953914,0.0063976505771279,-0.000581469386816,0.0033191605471074,-0.0032307729125022,-0.0015515089035034,-0.0094354887669577,-0.0027774121868691,-0.0052607494041775,0.9999378508942642
12747.925821875,-0.00164794921875,0.0164642333984375,-1.004196166992188,12747.920853875,-0.0105746959973583,-0.0055954552518105,-0.0188445505903608,0.0017586280591785,0.0005788104608654,-1.807790249586105e-05,0.0045110592618584,-0.0025164615362882,-0.0039315819740295,-0.009436759193203,-0.0027477430195349,-0.0052607078459707,0.9999378511902394
12747.935758875,-0.0025177001953125,0.0160675048828125,-1.001693725585938,12747.930790875,-0.0105684768976867,-0.0055867061951312,-0.0188386529631507,-0.0016438262537121,-0.0008345292881131,0.0024607926607131,0.0039377370849251,-0.0023732371628284,-0.0043892264366149,-0.0094337787801898,-0.0027434136990745,-0.0052576480222875,0.9999379325928708
12747.945695875,-0.0039520263671875,0.0145721435546875,-1.00421142578125,12747.940726875,-0.0105665281605345,-0.0055964228278585,-0.0188563964249777,3.156810998916626e-05,-0.0015766192227602,-0.0012284847907722,0.0030776993371546,-0.0027877055108547,-0.0018871426582336,-0.0094426730127727,-0.0027482338557198,-0.0052566027211676,0.9999378208263608
12747.955632875,-0.006256103515625,0.0164031982421875,-1.002044677734375,12747.950663875,-0.0105750369870028,-0.0056065931418651,-0.0188581631496518,-0.0012954850681126,-0.0007654204964637,-0.0008228854276239,0.0016535413451492,-0.0042848326265811,-0.0044049620628356,-0.009443594624548,-0.0027532737903683,-0.0052608062553021,0.9999377908828414
12747.965569875,-0.0073699951171875,0.0163421630859375,-1.003311157226562,12747.960600875,-0.0105771125562424,-0.0056078547382451,-0.0188636179507286,-0.0013487483374774,-0.0004864875227212,0.0019495985470712,-0.0006492747925221,-0.0024592317640781,-0.0022383332252502,-0.0094463277885899,-0.0027538801856226,-0.0052618301020827,0.9999377835894698
12747.975505875,-0.005340576171875,0.0152130126953125,-1.001312255859375,12747.970537875,-0.0105821758136186,-0.0056106778693482,-0.0188750690965626,-0.0015743179246783,0.0016264654695987,-0.0007910602726042,-0.0017603449523448,-0.0025317184627056,-0.003504991531372,-0.0094520680304679,-0.002755237479141,-0.0052643322352671,0.9999376465532414
12747.985442875,-0.0043792724609375,0.0156402587890625,-1.002426147460938,12747.980474875,-0.0105742867224896,-0.0055902174911269,-0.0188684835105634,0.0005442267283797,0.0031423028558492,-0.0025289061013609,0.0002486184239387,-0.003654284402728,-0.0015058517456054,-0.0094487106931366,-0.0027450626878541,-0.005260493962258,0.9999377335010948
12747.995379875,-0.00140380859375,0.0164337158203125,-1.003280639648438,12747.990411875,-0.0105791143675112,-0.0055592126240202,-0.0188756189273332,8.323369547724724e-05,0.0029028840363025,-0.000740859657526,0.0011789216659963,-0.0032341703772544,-0.0026197433471679,-0.0094522033510977,-0.0027295194846671,-0.0052630440921852,0.9999377153353493
12748.005316875,-0.001678466796875,0.016632080078125,-1.004379272460938,12748.000348875,-0.0105732923420032,-0.0055065928689885,-0.0188782430966463,-0.0005817576311528,0.0021968465298414,0.003189300186932,0.0041017760522663,-0.0024433378130197,-0.0034739971160888,-0.0094533684066339,-0.0027032316218036,-0.0052603779348135,0.9999378535397389
12748.015253875,-0.0024261474609375,0.0162506103515625,-1.00152587890625,12748.010284875,-0.0105710318819653,-0.0054699237797411,-0.0188795400166028,-0.0001484616659581,0.0023678224533796,-0.0020251695532351,0.003790455404669,-0.0022462699562311,-0.0045724511146545,-0.0094539177454043,-0.0026849055671504,-0.0052594195123864,0.9999378603669437
12748.025190875,-0.002197265625,0.016845703125,-1.000885009765625,12748.020221875,-0.0105722982524464,-0.0054578834700709,-0.0188809817318091,0.0003040092997252,-0.0009911563247442,0.0008861985988914,0.003030736465007,-0.0026291813701391,-0.0017189979553222,-0.0094546086951556,-0.0026788759993608,-0.0052601076261166,0.9999378554652012
12748.035127875,-0.0026092529296875,0.0155029296875,-1.003921508789062,12748.030158875,-0.0105743583294464,-0.0054591951978405,-0.0188786256654514,-0.0006643156521022,-0.0004670461639761,-4.111416637897491e-05,0.0032609300687909,-0.0020317323505878,-0.0010781288146972,-0.0094534370519858,-0.0026795283714036,-0.0052611347324453,0.9999378481487436
12748.045063875,-0.006195068359375,0.0146636962890625,-1.004974365234375,12748.040095875,-0.0105759696283454,-0.005469443337951,-0.0188831077972391,-4.007108509540558e-05,-0.0020362148061394,-0.0007043746300041,0.002859188709408,-0.0033789873123168,-0.0041147470474243,-0.0094557067791129,-0.0026846325119465,-0.0052618854756505,0.9999378428008188
12748.055000875,-0.0052490234375,0.01507568359375,-1.001663208007812,12748.050032875,-0.010585073691522,-0.0054773850759432,-0.018888241013495,-0.0016645994037389,0.0006871335208415,0.0002287966199219,-0.0007186871953308,-0.0042233541607856,-0.0051677227020263,-0.0094583061060714,-0.0026885463726325,-0.005266392380461,0.9999378106962084
12748.064937875,-0.0047760009765625,0.0163421630859375,-1.003463745117188,12748.059969875,-0.0106005068126432,-0.0054689395370769,-0.0188962830142172,0.0017799334600567,0.0021480442956089,-0.0007093013264238,0.0002189134247601,-0.0038194060325622,-0.0018566846847534,-0.0094623257805878,-0.0026842295882544,-0.0052741374531364,0.9999376959185938
12748.074874875,-0.003814697265625,0.01654052734375,-1.002151489257812,12748.069906875,-0.0106060250568695,-0.0054384149805882,-0.0188842902509366,0.0011698030866682,0.003933428786695,-2.806447446346283e-05,0.0006614183075726,-0.002540934830904,-0.0036568045616149,-0.0094562564934159,-0.002668974063594,-0.0052770573430207,0.99993779433154
12748.084811875,-0.0045166015625,0.0151824951171875,-1.004058837890625,12748.079842875,-0.010600726622809,-0.0053991043358228,-0.0188868708920424,0.0011122790165245,0.0047756526619195,-0.0017495322972536,0.0015834188088774,-0.0023451521992683,-0.0023444294929504,-0.0094574363369936,-0.0026493382358111,-0.0052745907983704,0.9999378119016932
12748.094748875,-0.00115966796875,0.0164337158203125,-1.00341796875,12748.089779875,-0.0105846822939705,-0.0053437317544091,-0.0188765616394957,-0.0005391472950577,0.0041615273803472,0.0011160289868712,0.0008261534385383,-0.0036928765475749,-0.0042512416839599,-0.0094521137322049,-0.0026217566126475,-0.0052668443230307,0.9999381055078002
12748.104685875,-0.0009613037109375,0.016845703125,-1.003402709960938,12748.099716875,-0.0105846918321077,-0.0053050860276063,-0.0188693856446486,-0.0007524662651121,0.0029107397422194,-0.0002712151035666,0.0041444492526352,-0.0024344809353351,-0.003610074520111,-0.0094484250100415,-0.0026024541950399,-0.005267041875485,0.9999381041006676
12748.114621875,-0.000946044921875,0.015472412109375,-1.00225830078125,12748.109653875,-0.0105910794788631,-0.0052867210124444,-0.0188843012921627,-0.0036909980699419,0.0008060438558459,-0.0009838766418397,0.0043244510889053,-0.0020374059677124,-0.0035949945449829,-0.0094558424730085,-0.0025932024508637,-0.0052703022781426,0.9999380212690708
12748.124558875,-0.000946044921875,0.0164794921875,-1.002243041992188,12748.119590875,-0.0105917669610849,-0.0052898726167522,-0.0188959902395659,-0.0007543307729065,-0.000438017770648,-0.0008360166102647,0.0043428596109151,-0.0034223850816488,-0.0024508237838745,-0.0094616957876171,-0.0025947438110699,-0.005270615352023,0.9999379594325608
12748.134495875,-0.00616455078125,0.0178985595703125,-1.002655029296875,12748.129527875,-0.0106036979586896,-0.0053174973825215,-0.0188957577514932,0.0009301188401877,-0.0018793204799294,0.0005909050814807,0.0043704789131879,-0.0024150721728801,-0.0024356842041015,-0.0094616671105071,-0.0026084993007872,-0.0052764496656957,0.9999379774785286
12748.144432875,-0.007080078125,0.016021728515625,-1.001632690429688,12748.139464875,-0.0106040581950769,-0.0053173547430935,-0.018899158911884,-0.0038670329377055,-0.0006213756278157,-0.0028118337504565,-0.0008481699042022,-0.0009994059801101,-0.0028477311134338,-0.009463368096169,-0.0026084173330106,-0.0052766260715112,0.9999379166157014
12748.154369875,-0.005828857421875,0.0166778564453125,-1.00299072265625,12748.149400875,-0.0106159295424182,-0.0053072048141718,-0.0189039645895386,-0.0010728449560701,0.001129918731749,-0.000363057013601,-0.0017738458700478,-0.0028810407966375,-0.0018254518508911,-0.009465759475604,-0.0026032737031438,-0.0052826029156399,0.9999378740401146
12748.164306875,-0.0042877197265625,0.01580810546875,-1.004074096679688,12748.159337875,-0.0106202820506861,-0.0052876188993129,-0.0189037803955252,-0.0012297048233449,0.0034164087846875,0.001990589313209,-0.0005422071553766,-0.0022247284650802,-0.003183364868164,-0.0094656215897388,-0.0025934613230979,-0.0052848721423236,0.9999378578754848
12748.174243875,-0.0033111572265625,0.0149078369140625,-1.002853393554688,12748.169274875,-0.0106205864123303,-0.0052510296416318,-0.0188977642826601,-0.0024017617106437,0.0041562346741557,-0.0004986673593521,0.0009623486548662,-0.0030884649604558,-0.0042664408683776,-0.0094625175935823,-0.0025751824808124,-0.00528520562332,0.9999379151062168
12748.184179875,-0.0019073486328125,0.0157012939453125,-1.002914428710938,12748.179211875,-0.0106234663154257,-0.0052090781949974,-0.0189063075077157,0.0011814762838184,0.003485252149403,-0.0021465069148689,0.0018969671800732,-0.0039972737431526,-0.0030456781387329,-0.0094666819207939,-0.0025541716817343,-0.0052868327197427,0.9999379035155896
12748.194116875,-0.0001983642578125,0.0173797607421875,-1.00244140625,12748.189148875,-0.0106175041155297,-0.0051709404034626,-0.0189037774852576,-0.0013312161900103,0.0012183682993054,0.0002873558551073,0.0032626455649733,-0.0032012891024351,-0.0031064748764038,-0.0094653085835722,-0.0025351389267196,-0.0052840356392805,0.9999379830465304
12748.204053875,-0.0019683837890625,0.015594482421875,-1.002410888671875,12748.199085875,-0.0106223220389181,-0.0051621264382733,-0.0189133118744721,2.548424527049065e-05,-0.0001151096075773,-0.0022307196632027,0.0049628163687884,-0.0015323553234338,-0.0026335716247558,-0.0094700574478156,-0.002530683765334,-0.0052864731569941,0.9999380252890898
12748.213990875,-0.003631591796875,0.0166168212890625,-1.003555297851562,12748.209022875,-0.0106253049846337,-0.0051620709106558,-0.0189167771554687,-0.0029450058937072,-0.0016765212640166,-0.0008253697305917,0.0031927414238452,-0.0033210981637239,-0.0026031136512756,-0.0094717940450788,-0.0025306327440246,-0.0052879604825192,0.9999379550880448
12748.223927875,-0.0048980712890625,0.0171356201171875,-1.003280639648438,12748.218958875,-0.0106329397956523,-0.005196529835005,-0.0189221982233416,0.0002506836317479,-0.001455245539546,-0.0010966917034238,0.0015639849007129,-0.0023041777312755,-0.003747820854187,-0.009474605205753,-0.0025478104928285,-0.0052916072569398,0.9999378695043368
12748.233864875,-0.0059051513671875,0.0171356201171875,-1.00299072265625,12748.228895875,-0.0106436916696983,-0.0052001084974659,-0.0189228751280652,-0.0007333541288971,0.0020878231152892,0.0011116014793515,0.0003010835498571,-0.0017860569059848,-0.003473162651062,-0.0094749668302489,-0.0025495469732514,-0.0052969650198465,0.9999378313387918
12748.243801875,-0.0041046142578125,0.0168914794921875,-1.000274658203125,12748.238832875,-0.0106369832256614,-0.0051803936125931,-0.0189278693231055,-8.971290662884712e-05,0.0051399394869804,-0.0011406671255826,-0.0007257079705595,-0.0017910506576299,-0.0031832456588745,-0.0094774029999987,-0.0025397085733607,-0.0052936977905732,0.9999378546125116
12748.253737875,-0.0050201416015625,0.0164947509765625,-1.002639770507812,12748.248769875,-0.0106417599951384,-0.0051644184104602,-0.0189387259296535,-0.0004899860359728,0.0024730507284402,-7.300591096282005e-05,0.0010588555596768,-0.0020460449159145,-0.000467300415039,-0.0094827950440056,-0.0025316698996357,-0.0052961476138513,0.9999377775550728
12748.263674875,-0.0034332275390625,0.017242431640625,-1.002609252929688,12748.258706875,-0.010634627811774,-0.0051272342109664,-0.0189234560792625,0.000329271890223,0.0016388157382607,-0.0009798691608011,0.0001061526127159,-0.0024275071918964,-0.0028319358825683,-0.0094750531143998,-0.0025131535390402,-0.0052927779762639,0.9999379207709476
12748.273611875,-0.002044677734375,0.01617431640625,-1.001327514648438,12748.268643875,-0.0106410529596856,-0.0050977043511326,-0.0189167319429234,0.0009239558130502,0.0018308283761143,-0.0019159701187163,0.0016635437496006,-0.0016731042414903,-0.0028011798858642,-0.0094716201536411,-0.0024983768064856,-0.0052961384458822,0.999938075651533
12748.283548875,-0.0012969970703125,0.0172119140625,-1.003219604492188,12748.278580875,-0.010629054370328,-0.0050695265154989,-0.0189155630593804,-0.0002248473465442,0.0017731375992298,0.0004941090010106,0.0030239205807447,-0.0027400497347116,-0.0015192627906799,-0.0094709465169899,-0.00248434877846,-0.0052902746388175,0.9999381174218408
12748.293485875,-0.000640869140625,0.014190673828125,-1.003448486328125,12748.288516875,-0.0106235497304153,-0.0050534410750587,-0.01891730400739,0.0003762282431125,0.0009390357881784,0.0018712296150624,0.0037555187009274,-0.0017041936516761,-0.0034112930297851,-0.0094717676411721,-0.0024763279963863,-0.0052875964560812,0.9999381364995976
12748.303422875,-0.00445556640625,0.0173797607421875,-1.0037841796875,12748.298453875,-0.0106152252108705,-0.0050653078219276,-0.0189125262523058,0.0014899191446602,-0.0032310746610164,0.0003722994588315,0.0044235126115381,-0.0047206580638885,-0.0036401152610778,-0.0094693999519169,-0.0024823131617096,-0.0052833844234693,0.9999381665037108
12748.313359875,-0.004974365234375,0.0160064697265625,-1.0018310546875,12748.308390875,-0.0106123775373811,-0.0050843631069649,-0.0189133094168542,-0.0032137562520802,-0.002111748792231,-0.0012500984594225,0.0006278660148382,-0.0015323515981435,-0.0039759278297424,-0.0094698385744692,-0.0024918516792498,-0.0052818695900312,0.9999381176883206
12748.323295875,-0.0040130615234375,0.0160369873046875,-1.001571655273438,12748.318327875,-0.0106116418948214,-0.005087740989952,-0.0189222286213574,0.0002898373641073,0.0010951645672321,0.0023058373481035,0.0001124441623687,-0.0029145628213882,-0.0020229816436767,-0.0094743060208,-0.0024935202611622,-0.0052814742946305,0.9999380608978616
12748.333232875,-0.005218505859375,0.0163116455078125,-1.00347900390625,12748.328264875,-0.0106139692577097,-0.0050867228274444,-0.0189142269970177,-0.000530682504177,0.0022477805614471,0.0014016940258443,0.0010727299377322,-0.0028760414570569,-0.0017634630203247,-0.0094703060620696,-0.0024930216125789,-0.005282653319145,0.9999380524993244
12748.343169875,-0.0038604736328125,0.0175933837890625,-1.005706787109375,12748.338201875,-0.0106114292594091,-0.0050703178839486,-0.0189168165892567,0.0002909707836806,0.0039815967902541,-0.0002495688386261,-0.0001491163857281,-0.0026039723306894,-0.0036707520484924,-0.0094715543515085,-0.0024848247901218,-0.0052814577643723,0.999938061015702
12748.353106875,-0.0030670166015625,0.015869140625,-1.0028076171875,12748.348138875,-0.0106086086213271,-0.0050357732080519,-0.0189098848851057,-0.001126630231738,0.0010406682267785,-0.0014791502617299,0.0011743786744773,-0.0013153050094842,-0.0058982372283935,-0.009467993015862,-0.0024675850954379,-0.0052802194797679,0.9999382486550956
12748.363043875,-0.0017547607421875,0.0147552490234375,-1.001190185546875,12748.358074875,-0.0106153067711323,-0.0050134042162891,-0.0189109997308289,0.0015369271859526,0.0031778896227478,0.0013749096542596,0.0019454709254205,-0.003040662035346,-0.0029990077018737,-0.0094684998506262,-0.0024563666795912,-0.0052836729695498,0.999938224054453
12748.372980875,-0.0014190673828125,0.017333984375,-1.003265380859375,12748.368011875,-0.0106119885405296,-0.0049755695313781,-0.0189148217615306,-0.00029639294371,0.002095048315823,-0.0016248750034719,0.003219898790121,-0.0041583757847547,-0.0013814568519592,-0.0094703069996725,-0.0024374560930563,-0.0052821883632243,0.9999382346298374
12748.382917875,-0.0019683837890625,0.0162353515625,-1.003982543945312,12748.377948875,-0.010618490881226,-0.0049619852502907,-0.0189124376690616,-0.0021880967542529,-0.0008405549451708,-0.0018004013691097,0.0035420106723904,-0.0015772562474012,-0.0034565329551696,-0.0094690868114534,-0.0024306398799287,-0.0052855065406105,0.9999382705993004
12748.392853875,-0.0023651123046875,0.0155029296875,-1.003402709960938,12748.387885875,-0.0106193091482523,-0.0049721760977757,-0.0189164262877659,-0.0012320214882493,0.0009706607088446,0.0015629045665264,0.0030028829351067,-0.0026798769831657,-0.0041738152503967,-0.0094711086322775,-0.0024357204072112,-0.0052858621802293,0.9999382680658682
12748.402790875,-0.0055694580078125,0.0148162841796875,-1.003921508789062,12748.397822875,-0.0106290115778879,-0.0049762916742614,-0.0189276882256405,-0.0009062252938747,0.0005818055942654,-0.0036738654598593,0.0026102680712938,-0.0034235604107379,-0.0035942196846008,-0.0094767620499969,-0.0024377020884269,-0.0052906793651439,0.9999381741447424
12748.412727875,-0.0045318603515625,0.0183868408203125,-1.003219604492188,12748.407759875,-0.0106452702911839,-0.0049758804360707,-0.018922696710568,0.0003910004161298,0.0004736809059977,-0.0007361327297985,-0.0005944883450865,-0.0041052140295505,-0.0041128993034362,-0.0094742855453632,-0.0024374328752209,-0.0052988167063054,0.9999381161792212
12748.422664875,-0.00634765625,0.016357421875,-1.00347900390625,12748.417696875,-0.0106514507386768,-0.0049743766768699,-0.0189247107748996,-0.0012247208505868,-0.0011243810877203,0.0006966502405703,0.0004416056908667,-0.0005366709083318,-0.003411054611206,-0.009475296041521,-0.0024366463731953,-0.0053019112963915,0.9999380941351568
12748.432601875,-0.00482177734375,0.01617431640625,-1.002548217773438,12748.427632875,-0.0106581807752782,-0.0049452341176605,-0.0189285261562959,0.0008639963343739,0.0041486788541078,0.0003983764909207,-0.0014033270999789,-0.0025699064135551,-0.003670334815979,-0.0094771347395439,-0.0024220339577609,-0.0053054094886384,0.999938069216033
12748.442538875,-0.003692626953125,0.0170440673828125,-1.001235961914062,12748.437569875,-0.0106588577493347,-0.0048991074667523,-0.0189289801893505,-0.0023500276729464,0.0070405369624495,-0.0032569915056228,7.643364369869232e-05,-0.0027534645050764,-0.0027393698692321,-0.0094772395867364,-0.0023989674902917,-0.005305965625589,0.999938184466742
12748.452475875,-0.0016632080078125,0.0173187255859375,-1.003036499023438,12748.447506875,-0.0106616213973048,-0.0048497243357471,-0.0189168082950755,0.0019938545301556,0.0041158543899655,-0.0010090172290802,0.0011562113650143,-0.0018715430051088,-0.0014266371726989,-0.0094710268630737,-0.0023742970770051,-0.0053075967555061,0.9999382324538926
12748.462411875,-0.0012969970703125,0.01678466796875,-1.005844116210938,12748.457443875,-0.0106546963640171,-0.0048297601564027,-0.0189175691064944,-0.0005047381855547,0.0003702174872159,0.0007421267218887,0.0031656702049076,-0.0015976466238498,-0.0032271146774291,-0.0094713462143643,-0.0023643463944773,-0.0053042281310632,0.9999382564499638
12748.472348875,-0.003387451171875,0.0162506103515625,-1.00311279296875,12748.467380875,-0.010654593501549,-0.0048233493818823,-0.0189200128570748,-0.0013881083577871,-0.0011413926258683,0.0009160311892628,0.0035254708491265,-0.0021341480314731,-0.0060347318649291,-0.0094725508536582,-0.002361135146506,-0.0053042040338107,0.9999382566215752
12748.482285875,-0.0030975341796875,0.015625,-1.001129150390625,12748.477317875,-0.010657809848833,-0.0048268087327721,-0.018938057310554,-0.0009081405587494,-0.0024084569886326,-0.0007206862792372,0.0014384742826223,-0.0026862453669309,-0.0033037662506103,-0.0094815846711239,-0.0023628010034375,-0.0053057730396837,0.9999382454445988
12748.492222875,-0.0054779052734375,0.0151214599609375,-1.002883911132812,12748.487254875,-0.0106661175859673,-0.0048455496005921,-0.0189487566115548,-0.0009624692611396,-0.0019850144162774,-0.0004032375290989,0.0017471276223659,-0.0033225528895854,-0.0013204216957092,-0.0094869940659216,-0.0023721029415413,-0.0053098248540814,0.999938097369374
12748.502159875,-0.00531005859375,0.017791748046875,-1.001968383789062,12748.497190875,-0.0106689135541725,-0.0048415431861462,-0.01895732106676,-0.000720031093806,0.0015557901933789,0.0008900626562535,-0.0006372500211,-0.0038346573710441,-0.0030753016471862,-0.009491268388085,-0.0023700635800381,-0.0053112309991774,0.9999380873526812
12748.512096875,-0.0035858154296875,0.0157012939453125,-1.002578735351562,12748.507127875,-0.0106582722646455,-0.0048365848774241,-0.0189618183552659,-0.0001607672311365,0.0021597957238554,-0.0002319267950952,-0.0004743612371385,-0.0011688657104969,-0.002159833908081,-0.0094934908904223,-0.0023676229881675,-0.0053059285321688,0.9999381251242426
12748.522033875,-0.003814697265625,0.0169525146484375,-1.002487182617188,12748.517064875,-0.0106436964452406,-0.0048108317122475,-0.0189500340996653,0.000173155684024,0.0015899902209639,0.0020933770574629,0.0012241345830261,-0.0032475385814905,-0.0027698278427124,-0.0094875137801972,-0.0023548479128944,-0.0052987778616441,0.9999382356677444
12748.531969875,-0.002593994140625,0.018035888671875,-1.003204345703125,12748.527001875,-0.0106400019763504,-0.0047924792561311,-0.0189456183109857,0.0013295002281665,0.0029833549633622,0.0016835168935358,0.0009769042953848,-0.0019919015467166,-0.002678096294403,-0.0094852534446674,-0.0023457016627988,-0.0052970234111131,0.9999382481654838
12748.541906875,-0.0015106201171875,0.0165252685546875,-1.002731323242188,12748.536938875,-0.0106467717587335,-0.0047718356621423,-0.0189370029777444,0.0019391449168324,0.0015363954007625,-0.0019439654424786,0.0021769688464701,-0.0008999127894639,-0.0033950209617614,-0.0094808993911061,-0.0023353714518623,-0.0053005165564154,0.9999382828886836
12748.551843875,-0.00115966796875,0.0155487060546875,-1.002883911132812,12748.546875875,-0.0106536901811864,-0.0047616258764719,-0.0189170347509942,0.0019221007823944,-0.0014740414917469,-0.000613716430962,0.0032501365058124,-0.002390569075942,-0.0029215812683105,-0.0094708968398739,-0.002330287470047,-0.0053040481929665,0.9999383769440482
12748.561780875,-0.001373291015625,0.0159454345703125,-1.003890991210938,12748.556812875,-0.0106611489571492,-0.004770466243353,-0.0189074092258613,0.0026200590655207,-0.0026641264557838,-0.0005660937167704,0.0036099283024668,-0.0033575072884559,-0.0030740499496459,-0.0094661169226786,-0.0023346979153892,-0.0053077474287357,0.999938350593046
12748.571717875,-0.0040740966796875,0.0155792236328125,-1.001846313476562,12748.566748875,-0.0106612946334446,-0.0047959512908367,-0.0188957980663428,-0.001053771469742,-0.0056053223088383,-0.0009248214773833,0.0034217867068946,-0.0029491707682609,-0.0040810108184814,-0.0094603786062159,-0.0023474698289886,-0.0053077133537491,0.9999384700482962
12748.581654875,-0.004180908203125,0.0173187255859375,-1.004196166992188,12748.576685875,-0.0106630645718123,-0.0048252788712153,-0.018887490668379,-0.0008266456425189,-0.0001398492604494,0.0012506055645644,0.0007503037340939,-0.0033070743083953,-0.0020363330841064,-0.0094563051356402,-0.0023621465937696,-0.0053084698008397,0.999938464659962
12748.591591875,-0.0045166015625,0.01666259765625,-1.00372314453125,12748.586622875,-0.0106689640138361,-0.0048226763469899,-0.0188860754089132,0.0031348064076155,0.0002750717103481,-0.0004394361749291,0.0006408900953829,-0.0015661586076021,-0.0043861269950866,-0.0094555971847157,-0.0023608212088112,-0.0053114331531314,0.999938503156975
12748.601527875,-0.0046234130859375,0.015625,-1.002532958984375,12748.596559875,-0.0106726007916519,-0.0048223666804066,-0.0188679652462005,0.0003824257291853,0.0015369597822427,0.0001684562303125,0.000304888933897,-0.0022041797637939,-0.0039127469062805,-0.0094465464142272,-0.0023606977821086,-0.0053132753378434,0.9999385496408074
12748.611464875,-0.0045928955078125,0.0175323486328125,-1.003265380859375,12748.606496875,-0.0106596482007103,-0.0048097307507837,-0.0188765400426597,-0.0011954973451793,-0.0001719910651445,0.0017216117121279,0.0001854430884122,-0.0032503493130207,-0.002722680568695,-0.0094507849455419,-0.0023544184887636,-0.0053068487177685,0.999938535813941
12748.621401875,-0.0030517578125,0.0167388916015625,-1.003433227539062,12748.616433875,-0.0106504339708226,-0.0047913082542979,-0.0188829816478025,0.0005741543136537,0.0029659382998943,0.0016182092949748,0.0001975414343178,-0.0013494435697793,-0.003455102443695,-0.0094539457046235,-0.0023452340875751,-0.0053023209753183,0.9999385680667868
12748.631338875,-0.001129150390625,0.017974853515625,-1.004959106445312,12748.626370875,-0.0106468875546894,-0.0047517699342656,-0.0188611236004328,0.0013451394625008,0.0024514161050319,-0.0009738453663885,0.001699149608612,-0.0021210443228483,-0.0036223530769348,-0.0094429086746786,-0.0023255413926122,-0.0053007614337315,0.99993869838872
12748.641275875,-0.0016021728515625,0.0171051025390625,-1.001235961914062,12748.636307875,-0.0106394976734959,-0.0047414467141999,-0.018866318698924,-0.0017201416194438,-0.0004147589206695,0.0012190076522529,0.0036114356480538,-0.000890277326107,-0.0051482915878295,-0.0094454705149871,-0.002320401204886,-0.0052971093860713,0.9999386647974986
12748.651212875,-0.002838134765625,0.014556884765625,-1.0025634765625,12748.646243875,-0.0106282834109361,-0.0047476300912242,-0.0188674979699743,0.0008937511593103,0.0003777984529733,-0.0006132470443844,0.0031445948407053,-0.0017612054944038,-0.0014252066612243,-0.0094460638076621,-0.0023235426003042,-0.0052914721579667,0.9999386453476004
12748.661149875,-0.0035858154296875,0.018280029296875,-1.002700805664062,12748.656180875,-0.0106365254853833,-0.0047665543883492,-0.0188539031611555,0.0013247285969555,-0.0024743191897869,0.000271210912615,0.0019275555387139,-0.0042958334088325,-0.0027525424957275,-0.0094393258395908,-0.002333001385676,-0.0052955197336482,0.9999387357276176
12748.671086875,-0.005035400390625,0.0174102783203125,-1.004623413085938,12748.666117875,-0.0106445602027609,-0.004787084737873,-0.0188399386997518,0.0026539121754467,-0.0043198904022574,0.0006720167584717,0.0012004021555185,-0.0005587246268987,-0.0028897523880004,-0.009432408269841,-0.0023432654350492,-0.0052994572653435,0.9999387076792124
12748.681022875,-0.0047454833984375,0.0173187255859375,-1.00445556640625,12748.676054875,-0.0106387913737066,-0.0047980163949886,-0.0188339356464763,-0.0027514304965734,-0.0004903115332126,0.0014113318175077,-0.0002382528036832,-0.0014224760234355,-0.0048123002052307,-0.0094294280845922,-0.0023487739231499,-0.0052965282477582,0.999938847756223
12748.690959875,-0.005126953125,0.0166473388671875,-1.002517700195312,12748.685991875,-0.0106360672107505,-0.004778192492378,-0.0188285769501401,-2.941349521279335e-05,0.0022884309291839,0.0034816730767488,3.184471279382706e-05,-0.0015086699277162,-0.0046442151069641,-0.0094266930937023,-0.0023388897026398,-0.0052952661805104,0.9999389163526892
12748.700896875,-0.0025634765625,0.0167694091796875,-1.0025634765625,12748.695928875,-0.0106157109544694,-0.0047764632267731,-0.0188155928107981,0.0021150722168385,0.0008891057223081,-0.000849284697324,-0.0003513526171445,-0.0021670740097761,-0.0027061104774475,-0.0094201740310554,-0.0023381559049399,-0.0052851132002576,0.9999389290705786
12748.710833875,-0.0010528564453125,0.0156402587890625,-1.003875732421875,12748.705865875,-0.0106175611415748,-0.0047540331990823,-0.0188110812406698,-0.0001856326125562,0.0027282852679491,-0.0007400950416922,0.0021896981634199,-0.0020404923707246,-0.0027517080307006,-0.009417861734281,-0.0023269449976623,-0.0052861496199811,0.9999389216878096
12748.720770875,-0.001861572265625,0.0168304443359375,-1.003875732421875,12748.715801875,-0.0106145986088694,-0.004726615829923,-0.0188128019150892,0.0011513959616422,0.0017176419496536,-0.0006879335269331,0.0036729061976075,-0.0031713638454675,-0.0040638446807861,-0.0094186452063853,-0.0023132462987451,-0.0052847949639533,0.99993905054986
12748.730707875,-0.000274658203125,0.017120361328125,-1.002395629882812,12748.725738875,-0.0106169593739092,-0.0047016784031083,-0.0188062401671025,-0.0018358714878559,0.0003093630075454,-0.0004160250537097,0.0028392579406499,-0.0019746180623769,-0.004063606262207,-0.0094153013824391,-0.0023007847235521,-0.0052861006044626,0.999939100855514
12748.740644875,-0.00164794921875,0.0150909423828125,-1.001724243164062,12748.735675875,-0.0106268503178732,-0.0046994261992674,-0.0188064657513392,-0.001808576285839,0.0007122382521629,-0.0017933929339051,0.0044239205308258,-0.0016849264502525,-0.0025835037231445,-0.0094154196885253,-0.0022996115489172,-0.0052910561627265,0.9999390655550432
12748.750580875,-0.0029144287109375,0.017669677734375,-1.004013061523438,12748.745612875,-0.0106346495941606,-0.0047016800088677,-0.0188140202940712,-0.0002873786725103,-0.0018217591568827,5.990080535411835e-05,0.0030528819188475,-0.0037218984216451,-0.0019122958183288,-0.0094192113694575,-0.0023006814323741,-0.0052949357213652,0.9999390379192338
12748.760517875,-0.0052337646484375,0.015411376953125,-1.002349853515625,12748.755549875,-0.0106601511349619,-0.0047255316730487,-0.0187969849672434,-0.000816402491182,-0.0011403011158108,-0.0065666777081787,0.0018102517351508,-0.001126131042838,-0.0042008757591247,-0.009410787007163,-0.0023125320533568,-0.0053075940118896,0.9999390073555118
12748.770454875,-0.0063629150390625,0.015533447265625,-1.002716064453125,12748.765486875,-0.0106776247086236,-0.004728928539143,-0.0187908408485993,0.0008912165649235,-0.0010718572884798,-0.0021221281494945,-0.0005056881345808,-0.0033782888203859,-0.0025375485420227,-0.0094077447530516,-0.0023141647210064,-0.0053163219129451,0.9999389451832116
12748.780391875,-0.0030517578125,0.0162811279296875,-1.003036499023438,12748.775423875,-0.0106757165846113,-0.0047279128620799,-0.0187688468225318,0.0024107950739562,-0.0002614427357912,0.0027280654758214,-0.0016358513385057,-0.0032342281192541,-0.0029033422470092,-0.0093967433517016,-0.0023137247942766,-0.0053153991463722,0.9999390709691464
12748.790329375,-0.0019073486328125,0.0168304443359375,-1.003631591796875,12748.785360375,-0.0106753900147842,-0.004719647924221,-0.0187470481094058,0.0038584894500672,0.0011550933122634,0.0018827780149877,0.0016670441254973,-0.0024647545069456,-0.0032233595848083,-0.0093858222490618,-0.0023096525109683,-0.0053153009287473,0.9999391908814772
12748.800266375,-0.0014801025390625,0.0165863037109375,-1.0048828125,12748.795297375,-0.0106620266190566,-0.0047022641354925,-0.0187351248708787,0.0005053393542766,0.0031320117413997,-0.0012083940673619,0.0027940738946199,-0.0019035153090953,-0.0038181543350219,-0.0093797994638477,-0.0023010557802432,-0.0053087155565541,0.999939297398132
12748.810203375,-0.000762939453125,0.0173187255859375,-1.001922607421875,12748.805234375,-0.0106450306091284,-0.0046878586061106,-0.0187237222427953,-0.0002182414755225,0.0005348976701498,0.0026302863843739,0.003206918016076,-0.002136256545782,-0.005069077014923,-0.0093740407224842,-0.0022939636210832,-0.0053002992505373,0.9999394169572684
12748.820139375,-0.001068115234375,0.01556396484375,-1.002822875976562,12748.815171375,-0.0106505945642743,-0.0046774875047491,-0.0187315066287195,0.0012656175531446,-0.0015300828963518,-0.0009080045856535,0.0039137112908065,-0.0014116168022155,-0.0021089911460876,-0.0093779113803789,-0.0022887314533577,-0.0053031202717004,0.9999393968618472
12748.830076375,0.00067138671875,0.0165557861328125,-1.002273559570312,12748.825108375,-0.0106565607571916,-0.0046881856044172,-0.0187187810986124,0.000695168506354,-0.0017359452322125,-0.003241466358304,0.0036192326806485,-0.0031536556780338,-0.0030090808868408,-0.0093715847054532,-0.0022940863586159,-0.005306068531233,0.9999393758604088
12748.840013375,-0.0031585693359375,0.017303466796875,-1.004592895507812,12748.835045375,-0.010667295725571,-0.004703587553131,-0.0187123568169601,9.918352589011192e-05,-0.0006572855636477,-0.0021703019738197,0.0053741340525448,-0.0021554101258516,-0.002459704875946,-0.0093684261793926,-0.0023017538137594,-0.0053113713473014,0.999939338086396
12748.849950375,-0.0055389404296875,0.0165557861328125,-1.00408935546875,12748.844982375,-0.0106872819409522,-0.0047205576102057,-0.0187103192204148,-0.0020646350458264,-0.0016170889139175,0.0005423938855528,0.0015611452981829,-0.0014056917279958,-0.004779040813446,-0.0093674745463435,-0.0023101499269302,-0.0053212862229286,0.9999393866710408
12748.859887375,-0.0039520263671875,0.0171661376953125,-1.000686645507812,12748.854919375,-0.0106817334517809,-0.0047276720998228,-0.0187039013642659,0.0017598015256226,-0.0005010711029171,-0.0005583041347563,-0.0008121123537421,-0.0021469555795192,-0.0042754411697387,-0.0093642795991038,-0.0023137504522742,-0.0053184872859026,0.9999392873968068
12748.869824375,-0.004425048828125,0.017364501953125,-1.003387451171875,12748.864855375,-0.0106800934158446,-0.0047301944053503,-0.0187020119857515,-0.0012154816649854,-0.001624658703804,-3.153132274746895e-05,0.0007773237302899,-0.0015347152948379,-0.0008727312088012,-0.0093633386980893,-0.0023150240183712,-0.0053176571835103,0.9999394125223148
12748.879761375,-0.002288818359375,0.0180511474609375,-1.003189086914062,12748.874792375,-0.010685097916661,-0.004719054786925,-0.0186920552440031,-0.0007676635868847,0.0006327107548713,-0.0006006532348692,0.0002931649796664,-0.0013263951987028,-0.0035732984542846,-0.0093583368351985,-0.0023094578340621,-0.0053202234533523,0.999939453848052
12748.889698375,-0.001495361328125,0.016326904296875,-1.003982543945312,12748.884729375,-0.0107013028121963,-0.0046911698314208,-0.0186901189183715,0.0023503652773797,0.0007466953247785,-0.0027580799069255,0.0024015153758227,-0.0006378144025802,-0.0033747553825378,-0.0093573131246803,-0.0022954455719197,-0.0053284581910633,0.999939454794836
12748.899634375,-0.003173828125,0.0170745849609375,-1.0013427734375,12748.894666375,-0.0106996074797133,-0.0046685081371543,-0.0186721387033304,0.0003845747560262,0.0024232883006334,-0.0001732325181365,0.0031723170541226,-0.0023440793156623,-0.0041677355766296,-0.0093482611574652,-0.0022841716109706,-0.0053277379823835,0.9999395791377952
12748.909571375,-0.002044677734375,0.01605224609375,-1.001510620117188,12748.904603375,-0.0106807824121903,-0.004669897939324,-0.0186804131204051,-0.002115068025887,-0.0010334951803088,0.001336779911071,0.0014952388592064,-0.0016046725213527,-0.0015281438827514,-0.0093523803323117,-0.0022849322825199,-0.0053183096690808,0.9999395866932242
12748.919508375,-0.000457763671875,0.0182647705078125,-1.002517700195312,12748.914540375,-0.0106749650239533,-0.0046649942117292,-0.0186832271770829,-0.0007486739195883,-0.0003755176439881,-0.0010034628212451,0.0026194863021373,-0.0026298258453607,-0.0016960501670837,-0.0093537674777192,-0.0022825002025223,-0.0053154206633496,0.9999396072727436
12748.929445375,-0.0032806396484375,0.0170440673828125,-1.002182006835938,12748.924477375,-0.0106892996627059,-0.0046754043894292,-0.0186748608623952,0.0003453525714576,-0.0036863591521978,-0.0022199945524334,0.0042168088257312,-0.000408936291933,-0.0027030110359191,-0.0093496290112802,-0.0022876604691081,-0.0053225490583074,0.9999395564944183
12748.939382375,-0.002593994140625,0.0163116455078125,-1.003585815429688,12748.934413375,-0.0106996796897429,-0.0047123625595044,-0.0186611682836726,0.0011471393518149,-0.0022791316732764,0.0005859676748514,0.0014308858662843,-0.0016159489750862,-0.0023671984672546,-0.0093428937384269,-0.0023061267503335,-0.0053275826121967,0.999939520638598
12748.949319375,-0.005523681640625,0.0176239013671875,-1.00250244140625,12748.944350375,-0.0107062964165519,-0.0047319296467248,-0.0186527285626725,0.001843289937824,0.0016727335751056,-0.0022638808004558,0.0021370956674218,-0.002339931204915,-0.0037709474563598,-0.0093387341249123,-0.0023159015222995,-0.0053308096792056,0.9999394976510292
12748.959256375,-0.003204345703125,0.0162200927734375,-1.002487182617188,12748.954287375,-0.0107144967554378,-0.0047134682397248,-0.0186561199592829,-0.0002074004150927,0.0008102916181087,-0.0010236976668238,-0.0008110501803457,-0.0010310672223567,-0.0026875734329223,-0.0093403900964713,-0.0023066239955199,-0.005334991793951,0.9999394678600554
12748.969192375,-0.0030364990234375,0.0179901123046875,-1.002700805664062,12748.964224375,-0.010715406642216,-0.0047023240414007,-0.0186464090555398,0.0001619802787899,0.0003439709544181,-0.0002079713158309,0.0014971443451941,-0.002425167709589,-0.0026720762252807,-0.0093355056983223,-0.0023010739714602,-0.0053355100962885,0.999939583380456
12748.979129375,-0.00286865234375,0.017822265625,-1.004425048828125,12748.974161375,-0.010710295049701,-0.0046884125421589,-0.0186442164439931,-0.0008584223687648,0.0031988900154829,8.147722110152245e-05,0.001651082187891,-0.0006529558449983,-0.0028855800628662,-0.0093343666898848,-0.0022941484451862,-0.0053330221313309,0.9999396011032816
12748.989066375,-0.0011444091796875,0.0175018310546875,-1.001693725585938,12748.984098375,-0.0107154184572922,-0.0046652918365779,-0.0186352290880478,0.0011647809296846,0.0033528208732604,0.0003488585352897,0.0017958129756152,-0.0008118171244859,-0.0046095848083496,-0.0093298176113264,-0.0022825890822643,-0.005335702369088,0.9999396416171596
12748.999003375,0.000762939453125,0.0177459716796875,-1.00189208984375,12748.994035375,-0.0107102186149686,-0.0046599607526744,-0.0186109417950176,0.00295363785699,0.000326968729496,0.0010338313877582,0.0035147285088896,-0.0011079665273427,-0.0018777847290039,-0.0093176545077657,-0.0022800132389111,-0.0053331563484866,0.999939778966234
12749.008940375,-0.0021514892578125,0.0159149169921875,-1.003982543945312,12749.003972375,-0.0107175800623707,-0.0046768374125455,-0.0186070316578733,0.0013517467305064,-0.0011146003380417,0.0001081167720258,0.005438950844109,-0.0008599162101745,-0.0020761489868164,-0.009315753029369,-0.0022884272941581,-0.0053367629198697,0.9999397532752228
12749.018877375,-0.003509521484375,0.0176544189453125,-1.004852294921875,12749.013908375,-0.0107319128015772,-0.004682477364517,-0.0186104158114288,-0.0029173581860959,-0.0049280896782875,0.0005167447961866,0.0025301608256995,-0.0026943553239107,-0.0041666626930236,-0.0093174769398748,-0.0022911713334366,-0.0053438988063686,0.9999396428371724
12749.028814375,-0.00323486328125,0.0146484375,-1.001510620117188,12749.023845375,-0.0107347939254947,-0.0046900212369295,-0.0186206416434851,0.0005535394884645,-0.0034401817247271,-0.0031341828871518,0.0011796704493463,-0.0009650774300098,-0.0050366520881652,-0.0093226119476848,-0.0022949018173709,-0.005345291289948,0.9999396925239288
12749.038751375,-0.0040283203125,0.0165863037109375,-1.00140380859375,12749.033782375,-0.0107413853318932,-0.0047072750389811,-0.0186202005587363,-0.0007433360442519,-0.0030735759064555,-0.0001325942575931,0.0014715790748596,-0.0039706174284219,-0.0016950368881225,-0.0093224450064962,-0.0023034986338217,-0.0053485068321689,0.9999396696183188
12749.048687375,0.0048980712890625,0.012451171875,-0.9993438720703124,12749.043719375,-0.0107435971942245,-0.0046980799585791,-0.0186142037111679,0.0012481757439672,0.0031086858361959,0.0011976547539234,0.0006689294241368,-0.0020267553627491,-0.0015881061553955,-0.0093194245410918,-0.0022989071920156,-0.0053496626496882,0.999939720991217
12749.058624375,0.0437774658203125,-0.0562591552734375,-1.019485473632812,12749.053656375,-0.0085706935056865,-0.0046683756950473,-0.0187002967538014,-0.0140287820249795,-0.0327827706933021,0.5759367346763611,0.0095656150951981,-0.006247965618968,0.0004703998565673,-0.0093599031058921,-0.0022939944427988,-0.0042633101608025,0.9999444792144864
12749.068561375,0.014068603515625,-0.04437255859375,-0.99981689453125,12749.063593375,0.0016097958648719,-0.0056816520385859,-0.0186011749118723,0.0480420440435409,-0.1571409404277802,1.420953512191772,0.0494581051170826,-0.0748591870069503,-0.0196745991706848,-0.0092981266527143,-0.0028481843876933,0.000831280739753,0.9999523379315688
12749.078498375,-0.00579833984375,0.007354736328125,-0.980987548828125,12749.073530375,0.0175060122645794,-0.0059118335711334,-0.0181983350366911,0.026359386742115,0.0631718188524246,1.695364117622375,0.0199794266372919,-0.0625698193907737,5.960464477539063e-08,-0.0090727821232393,-0.0030353195598961,0.008779388912369,0.9999156719228794
12749.088435375,-0.013275146484375,0.0236053466796875,-1.00579833984375,12749.083466375,0.0340841595560917,-0.0047415991843261,-0.0183461109721216,-0.0237866044044494,0.0766463503241539,1.619191408157349,-0.0010575526393949,-0.0109902750700712,0.0188329219818115,-0.0091311696991213,-0.0025266712165239,0.0170622346070877,0.9998095053491614
12749.098372375,-0.001068115234375,0.0308837890625,-1.016494750976562,12749.093403375,0.0499132989452539,-0.0040337466376323,-0.0186603854246956,-0.0229346584528684,-0.0276706665754318,1.562644124031067,-0.0092421080917119,0.0049461126327514,-0.0059805512428283,-0.0092768062215361,-0.0022489785194407,0.0249717341951327,0.9996425632713056
12749.108309375,0.0098724365234375,0.011932373046875,-0.998687744140625,12749.103340375,0.0653530773709149,-0.0042599054995211,-0.0184900716975988,0.0611658357083797,-0.0274682641029357,1.570681571960449,0.0031910552643239,0.0123948398977518,-0.0166747570037841,-0.0091703639142387,-0.0024307601589711,0.0326889343115222,0.9994205462258764
12749.118245375,0.004425048828125,0.0088043212890625,-0.9998931884765624,12749.113277375,0.0813796907792488,-0.0039914307847643,-0.0180827452631687,0.0123069528490304,0.0108355153352022,1.648358464241028,0.0138632114976644,-0.0061493180692195,0.0011408329010009,-0.0089525679259748,-0.0023617653521315,0.0406949016918782,0.9991287607703752
12749.128182375,-0.0036163330078125,0.0123443603515625,-1.007980346679688,12749.123214375,0.0980827914552369,-0.0037000500764026,-0.01823566060088,-0.0165486652404069,-0.0244412496685981,1.692954540252686,0.0081244837492704,-0.0094302613288164,-6.628036499023438e-05,-0.0090160381811919,-0.0022946876943246,0.0490364637041587,0.9987537118332922
12749.138119375,-0.0006866455078125,0.024566650390625,-1.00146484375,12749.133151375,0.1148801625399598,-0.0037396446529429,-0.0182949402904008,0.0071332291699945,-0.0244134217500686,1.685291171073914,0.0001226863823831,-0.0059494916349649,-0.0081546902656555,-0.0090249015186091,-0.0023917937188907,0.0574230746979834,0.998306264287186
12749.148056375,0.00067138671875,0.021942138671875,-1.005462646484375,12749.143088375,0.1315390391855479,-0.003503619189976,-0.0183101908549549,0.0119335763156414,9.27206128835678e-05,1.670153737068176,0.0028163897804915,0.0062575507909059,-0.0016385912895202,-0.0090200319671166,-0.0023496306890015,0.0657352587409499,0.9977936138859962
12749.157993375,0.0057373046875,0.0112152099609375,-1.001190185546875,12749.153024375,0.1483743708860244,-0.0032782522157679,-0.0180388442327911,0.0371478535234928,-0.0106574930250644,1.721705913543701,0.0039491113275289,0.0039043389260768,-0.0056306719779968,-0.0088729935561823,-0.0023030522645432,0.0741307818297319,0.9972063937819404
12749.167930375,0.002105712890625,0.025177001953125,-1.003280639648438,12749.162961375,0.1655254310284022,-0.003093845773661,-0.0179211849646032,-0.0067522260360419,-0.0183359179645776,1.720432639122009,0.0088306609541177,-0.0067049488425254,-0.0013555288314819,-0.0088019144514035,-0.0022823110320817,0.0826786554677171,0.9965348433054868
12749.177867375,-0.000152587890625,0.013153076171875,-1.003341674804688,12749.172898375,0.1825054487897092,-0.0031085760966729,-0.0180204794428206,0.0058447918854653,-0.0452891737222671,1.715333700180054,0.0052137929014861,0.0071575660258531,-0.0034478306770324,-0.0088309878982918,-0.0023688136057517,0.0911362616447518,0.995796546583989
12749.187804375,0.00146484375,0.0195465087890625,-1.000900268554688,12749.182835375,0.1998575572070701,-0.0030018811115339,-0.0180150803821019,0.0083343144506216,0.0041790418326854,1.767808556556702,0.0028488172683864,-0.0048609636723995,-0.0035083889961242,-0.0088127412022783,-0.0023919936440839,0.099771843347973,0.994968439446369
12749.197740375,0.000762939453125,0.0157318115234375,-1.004730224609375,12749.192772375,0.2173323160501004,-0.0027199770414936,-0.0178232286952281,0.0294633023440837,-0.0064369151368737,1.753787875175476,0.0041844015941023,0.0017242897301912,-0.0010627508163452,-0.0087114367792081,-0.0023183851704808,0.1084600636878408,0.994059940933366
12749.207677375,0.0046539306640625,0.008056640625,-0.99981689453125,12749.202709375,0.2349353595924135,-0.0025640287004879,-0.0176834915585511,0.0042716627940535,-0.0279906764626503,1.7967689037323,0.0033265820238739,-0.0019506905227899,-0.0048898458480834,-0.0086304486173111,-0.0023093472649741,0.1172042920967497,0.9930676774923668
12749.217614375,0.0012054443359375,0.01318359375,-1.003143310546875,12749.212646375,0.2532731650772002,-0.0025122205254758,-0.0177261205952346,0.0012585623189806,-0.0303819291293621,1.874145269393921,0.0071657728403806,-0.0096684880554676,2.288818359375e-05,-0.0086333269399254,-0.002365376963483,0.1263043602471272,0.9919511665414208
