loggingTime(txt),locationTimestamp_since1970(s),locationLatitude(WGS84),locationLongitude(WGS84),locationAltitude(m),locationSpeed(m/s),locationCourse(°),locationVerticalAccuracy(m),locationHorizontalAccuracy(m),locationFloor(Z),accelerometerTimestamp_sinceReboot(s),accelerometerAccelerationX(G),accelerometerAccelerationY(G),accelerometerAccelerationZ(G),motionTimestamp_sinceReboot(s),motionYaw(rad),motionRoll(rad),motionPitch(rad),motionRotationRateX(rad/s),motionRotationRateY(rad/s),motionRotationRateZ(rad/s),motionUserAccelerationX(G),motionUserAccelerationY(G),motionUserAccelerationZ(G),motionAttitudeReferenceFrame(txt),motionQuaternionX(R),motionQuaternionY(R),motionQuaternionZ(R),motionQuaternionW(R),motionGravityX(G),motionGravityY(G),motionGravityZ(G),motionMagneticFieldX(µT),motionMagneticFieldY(µT),motionMagneticFieldZ(µT),motionHeading(°),motionMagneticFieldCalibrationAccuracy(Z),activityTimestamp_sinceReboot(s),activity(txt),activityActivityConfidence(Z),activityActivityStartDate(txt),pedometerStartDate(txt),pedometerNumberofSteps(N),pedometerAverageActivePace(s/m),pedometerCurrentPace(s/m),pedometerCurrentCadence(steps/s),pedometerDistance(m),pedometerFloorAscended(N),pedometerFloorDescended(N),pedometerEndDate(txt),altimeterTimestamp_sinceReboot(s),altimeterReset(bool),altimeterRelativeAltitude(m),altimeterPressure(kPa),batteryState(N),batteryLevel(R)
2021-11-29 12:48:45.145 -0500,1638208119.371483,33.99218360113128,-81.0309225577582,71.7785,-1,-1,4.059778690338135,35,-9999,12745.77946425,-0.0123443603515625,0.0180206298828125,-1.006500244140625,12745.77449625,-0.009541588362554568,-0.01659877452949237,-0.02021729995029226,-0.00481884740293026,0.04246457666158676,0.006959537044167519,0.005806656554341316,-0.01122842729091644,-0.003363311290740967,XArbitraryZVertical,-0.01014760664536597,-0.008250549857270221,-0.004686475764479179,0.9999034956868159,-0.01659462042152882,0.02021592296659946,-0.999657928943634,0,0,0,-1,-1,12739.09061379167,unknown,2,2021-11-29 12:48:38.394 -0500,,,,,,,,,,659900923.475302,0,0.1199989,100.9249,1,0.2
2021-11-29 12:48:45.160 -0500,,,,,,,,,,12745.78940041667,-0.0115966796875,0.0157470703125,-1.001998901367188,12745.78443241667,-0.009457319389798052,-0.01630877822449065,-0.02023798843502808,-0.009506277740001678,0.0281950905919075,0.01038702577352524,0.003960356116294861,-0.002215906977653503,-0.006837964057922363,XArbitraryZVertical,-0.01015692846621142,-0.008105943175289647,-0.00464573167259787,0.9999047992279164,-0.01630471646785736,0.02023660764098167,-0.9996622800827026,0,0,0,-1,-1,,,,,,,,,,,,,,,,,,1,0.2
2021-11-29 12:48:45.162 -0500,,,,,,,,,,12745.79933741667,-0.017730712890625,0.0148773193359375,-0.9940948486328125,12745.79436941667,-0.009429641786968946,-0.01579938368053876,-0.02037546767206952,-0.02580135874450207,0.07560525089502335,-0.002962735015898943,0.004198767244815826,-0.004626918584108353,-0.002331256866455078,XArbitraryZVertical,-0.01022436881161265,-0.007851080449823002,-0.004633934438182068,0.9999062542036304,-0.01579544693231583,0.02037405781447887,-0.9996676445007324,0,0,0,-1,-1,,,,,,,,,,,,,,,,,,1,0.2
2021-11-29 12:48:45.163 -0500,,,,,,,,,,12745.80927441667,0.042633056640625,0.0038604736328125,-1.0089111328125,12745.80430541667,-0.009599123654570781,-0.01461899517777305,-0.02072076842307115,-0.03752193599939346,0.1786831766366959,-0.06386843323707581,-0.003115375526249409,-0.005841895937919617,0.005583643913269043,XArbitraryZVertical,-0.01039488270625176,-0.007259233045622916,-0.004723431248922357,0.9999084777707282,-0.01461533643305302,0.02071928605437279,-0.9996784925460815,0,0,0,-1,-1,,,,,,,,,,,,,,,,,,1,0.2
2021-11-29 12:48:45.164 -0500,,,,,,,,,,12745.81921141667,-0.0096588134765625,0.01702880859375,-0.9714508056640625,12745.81424241667,-0.01019977456051542,-0.01391329331009085,-0.02114872752505252,-0.001505608670413494,0.165892168879509,0.04570773243904114,0.05654279142618179,-0.01728660799562931,-0.009231507778167725,XArbitraryZVertical,-0.01060924891592661,-0.006902185571582797,-0.005025897417113356,0.9999072768716672,-0.01390973292291164,0.02114715054631233,-0.9996796250343323,0,0,0,-1,-1,,,,,,,,,,,,,,,,,,1,0.2
2021-11-29 12:48:45.165 -0500,,,,,,,,,,12745.82914741667,0.011993408203125,0.013763427734375,-1.030593872070312,12745.82417941667,-0.009929338143125549,-0.01238542121952422,-0.02089219638012852,0.005964292213320732,0.006428210996091366,0.03451899439096451,0.002723590470850468,-0.003861799836158752,0.02825433015823364,XArbitraryZVertical,-0.01047632202239792,-0.006140397620746783,-0.004899595377034664,0.9999142564049297,-0.01238240208476782,0.02089067734777927,-0.9997050762176514,0,0,0,-1,-1,,,,,,,,,,,,,,,,,,1,0.2
2021-11-29 12:48:45.166 -0500,,,,,,,,,,12745.83908441667,-0.0228729248046875,0.020050048828125,-0.989532470703125,12745.83411641667,-0.009777074462576316,-0.0121857530581462,-0.02076325037604313,0.01781509257853031,0.04254180565476418,0.002949082292616367,0.02417623437941074,-0.006998263299465179,-0.03088361024856567,XArbitraryZVertical,-0.01041090521760375,-0.006041688740339018,-0.0048249118731972,0.9999159209252173,-0.01218282524496317,0.02076175808906555,-0.9997102022171021,0,0,0,-1,-1,,,,,,,,,,,,,,,,,,1,0.2
2021-11-29 12:48:45.167 -0500,,,,,,,,,,12745.84902141667,-0.0035247802734375,0.0149688720703125,-1.010604858398438,12745.84405341667,-0.009728010211995776,-0.0117313182308476,-0.02066835779390119,0.0002198535948991776,0.03655235469341278,0.01063043810427189,-0.01114438008517027,-0.0006167702376842499,0.01018518209457397,XArbitraryZVertical,-0.01036222376128887,-0.005814979361486701,-0.004803027916936658,0.999917864999854,-0.01172854378819466,0.02066688612103462,-0.9997175931930542,0,0,0,-1,-1,,,,,,,,,,,,,,,,,,1,0.2
2021-11-29 12:48:45.168 -0500,,,,,,,,,,12745.85895841667,-0.005889892578125,0.01861572265625,-1.007659912109375,12745.85399041667,-0.009670664400005261,-0.01175329705348865,-0.02072588946679847,-0.006029786542057991,-0.02998695522546768,0.0005688825622200966,0.008225724101066589,-0.005755465477705002,-0.01088863611221313,XArbitraryZVertical,-0.01039087219269033,-0.005826123739776638,-0.004774072681084041,0.9999177136219077,-0.01175050251185894,0.02072440646588802,-0.9997161626815796,0,0,0,-1,-1,,,,,,,,,,,,,,,,,,1,0.2
2021-11-29 12:48:45.173 -0500,,,,,,,,,,12745.86889541667,-0.009735107421875,0.0159149169921875,-1.001434326171875,12745.86392641667,-0.009705575808582275,-0.01211053812413418,-0.0207767425552394,-0.0103121493011713,-0.03660411015152931,-0.005964650306850672,0.006217735819518566,-0.002159455791115761,-0.00794905424118042,XArbitraryZVertical,-0.01041725418076604,-0.006004423192321935,-0.00478951567959454,0.9999162922788426,-0.01210762839764357,0.02077524736523628,-0.9997108578681946,0,0,0,-1,-1,,,,,,,,,,,,,,,,,,1,0.2
2021-11-29 12:48:45.185 -0500,,,,,,,,,,12745.87883241667,-0.0108489990234375,0.01873779296875,-1.001602172851562,12745.87386341667,-0.009769460858077627,-0.01252220945518873,-0.02091133262436006,-0.01696126349270344,-0.04273830354213715,-0.009092533029615879,0.002784037031233311,-0.004994822666049004,-0.001731336116790771,XArbitraryZVertical,-0.01048572685513607,-0.006209575284044675,-0.00481888615722839,0.9999142352678101,-0.01251914445310831,0.02090980857610703,-0.9997029900550842,0,0,0,-1,-1,,,,,,,,,,,,,,,,,,1,0.2
2021-11-29 12:48:45.194 -0500,,,,,,,,,,12745.88876841667,-0.0090179443359375,0.02008056640625,-1.007492065429688,12745.88380041667,-0.009855383744809435,-0.01295702024882248,-0.02095411554958833,0.01291913725435734,-0.04896077886223793,-0.006739896722137928,0.002104815095663071,-0.002214720472693443,-0.001905620098114014,XArbitraryZVertical,-0.01050844092177877,-0.006426405046872396,-0.004859424840270484,0.9999123371272879,-0.012953813187778,0.02095258235931396,-0.9996965527534485,0,0,0,-1,-1,,,,,,,,,,,,,,,,,,1,0.2
2021-11-29 12:48:45.204 -0500,,,,,,,,,,12745.89870541667,-0.0097503662109375,0.0175323486328125,-1.0047607421875,12745.89373741667,-0.009965001950866121,-0.01351958289582609,-0.02071599321805852,0.02881581149995327,-0.0786287933588028,-0.01447957567870617,0.00449832621961832,-0.000633876770734787,-0.00779801607131958,XArbitraryZVertical,-0.01039112425351119,-0.006707686787272385,-0.004912083829766736,0.9999114851706913,-0.01351627055555582,0.02071451209485531,-0.9996940493583679,0,0,0,-1,-1,,,,,,,,,,,,,,,,,,1,0.2
2021-11-29 12:48:45.213 -0500,,,,,,,,,,12745.90864241667,-0.01275634765625,0.016357421875,-1.00341796875,12745.90367441667,-0.0101484858142493,-0.01435620888406212,-0.02038332663997615,0.03357461467385292,-0.08806170523166656,-0.02198968827724457,0.004602367058396339,-0.002849496901035309,-0.005071520805358887,XArbitraryZVertical,-0.01022751320409383,-0.007125864393757553,-0.005000672424596658,0.9999099004252294,-0.01435273326933384,0.02038191445171833,-0.9996892213821411,0,0,0,-1,-1,,,,,,,,,,,,,,,,,,1,0.2
2021-11-29 12:48:45.223 -0500,,,,,,,,,,12745.91857941667,-0.016815185546875,0.0121917724609375,-0.99700927734375,12745.91361141667,-0.01038289991579669,-0.01515011147196036,-0.02011409103421318,0.01723905093967915,-0.06765347719192505,-0.02122416347265244,0.002390120178461075,-0.003755243495106697,-0.003735005855560303,XArbitraryZVertical,-0.01009577433806867,-0.007522289688569971,-0.005114835242971111,0.9999077162599178,-0.01514646783471107,0.02011273428797722,-0.9996829628944397,0,0,0,-1,-1,,,,,,,,,,,,,,,,,,1,0.2
2021-11-29 12:48:45.233 -0500,,,,,,,,,,12745.92851641667,-0.0163116455078125,0.013824462890625,-0.997314453125,12745.92354741667,-0.01046663440981796,-0.01548521739828838,-0.0200073544941954,0.00432591512799263,-0.0004430115222930908,0.001183407381176949,-0.001333685591816902,-0.007814178243279457,0.002670705318450928,XArbitraryZVertical,-0.0100435904019331,-0.007689688118168658,-0.005155423136174649,0.9999067118637505,-0.01548149902373552,0.02000601962208748,-0.9996799826622009,0,0,0,-1,-1,,,,,,,,,,,,,,,,,,1,0.2
2021-11-29 12:48:45.243 -0500,,,,,,,,,,12745.93845341667,-0.0119171142578125,0.0154571533203125,-1.0054931640625,12745.93348441667,-0.01042118232250838,-0.01543840481034069,-0.01999397609273917,-0.0006970725953578949,-0.003132072277367115,0.004390119574964046,-0.0008769398555159569,-0.00616811215877533,0.002366542816162109,XArbitraryZVertical,-0.01003660717832116,-0.007666547806418776,-0.005132986391826968,0.9999070505085457,-0.01543470565229654,0.01999264396727085,-0.9996809959411621,0,0,0,-1,-1,,,,,,,,,,,,,,,,,,1,0.2
2021-11-29 12:48:45.253 -0500,,,,,,,,,,12745.94838941667,-0.0111236572265625,0.0186309814453125,-1.007614135742188,12745.94342141667,-0.01039489276908242,-0.01558986356213381,-0.01991625015325776,0.01908568665385246,-0.03096609935164452,-0.0005644252523779869,0.003669025376439095,-0.004457710310816765,-0.005813002586364746,XArbitraryZVertical,-0.009998034297994313,-0.007742606684375015,-0.005119387452120629,0.9999069685622329,-0.01558614056557417,0.01991493441164494,-0.9996801614761353,0,0,0,-1,-1,,,,,,,,,,,,,,,,,,1,0.2
2021-11-29 12:48:45.263 -0500,,,,,,,,,,12745.95832641667,-0.0126495361328125,0.0143890380859375,-0.99951171875,12745.95335841667,-0.01039635418475124,-0.01593165957161295,-0.0196550374908914,0.02649646438658237,-0.03502349182963371,-0.0007428573444485664,0.004804249852895737,-0.001022722572088242,-0.007934153079986572,XArbitraryZVertical,-0.009868320311029369,-0.007914170082825377,-0.005119456129683795,0.9999069680775367,-0.01592790894210339,0.01965377107262611,-0.9996799826622009,0,0,0,-1,-1,,,,,,,,,,,,,,,,,,1,0.2
2021-11-29 12:48:45.273 -0500,,,,,,,,,,12745.96826341667,-0.0146331787109375,0.015625,-0.999237060546875,12745.96329541667,-0.01038971917446068,-0.01616846387096794,-0.01953076068064993,0.003879569470882416,-0.01065849792212248,-0.0002586944028735161,0.003515139222145081,-0.005140412598848343,0.0001668930053710938,XArbitraryZVertical,-0.009806767895829654,-0.00803292211343453,-0.005115476274227148,0.9999065791867319,-0.01616467535495758,0.01952951960265636,-0.9996786117553711,0,0,0,-1,-1,,,,,,,,,,,,,,,,,,1,0.2
2021-11-29 12:48:45.283 -0500,,,,,,,,,,12745.97820041667,-0.014068603515625,0.015594482421875,-1.00347900390625,12745.97323141667,-0.0103946736446029,-0.01618815662507198,-0.01953125400545687,-0.00144941546022892,0.0002083983272314072,0.003164266236126423,0.001551182940602303,-0.00390494242310524,0.0004411935806274414,XArbitraryZVertical,-0.009807084652462328,-0.008042741834421961,-0.005117854619705329,0.9999065026386421,-0.0161843616515398,0.01953001134097576,-0.9996782541275024,0,0,0,-1,-1,,,,,,,,,,,,,,,,,,1,0.2
2021-11-29 12:48:45.293 -0500,,,,,,,,,,12745.98813741667,-0.014312744140625,0.016082763671875,-1.002655029296875,12745.98316841667,-0.01040370819401368,-0.0161553654791336,-0.0195125449790147,0.0007298490963876247,0.006409302353858948,-0.004392187111079693,0.002082983031868935,-0.003916755318641663,-0.003799855709075928,XArbitraryZVertical,-0.009797683316503219,-0.008026352847683575,-0.005122608271568506,0.9999067072013823,-0.01615158841013908,0.01951130665838718,-0.9996791481971741,0,0,0,-1,-1,,,,,,,,,,,,,,,,,,1,0.2
2021-11-29 12:48:45.302 -0500,,,,,,,,,,12745.99807441667,-0.0171356201171875,0.0157318115234375,-1.003189086914062,12745.99310541667,-0.01041343109887226,-0.01608829823716256,-0.01951042438444531,-0.001156734302639961,0.004738534800708294,-0.0005323342047631741,0.001771800220012665,-0.003426354378461838,-0.002974748611450195,XArbitraryZVertical,-0.009796489532108222,-0.00799277980082457,-0.005127806071474179,0.9999070278123013,-0.01608454249799252,0.01950918696820736,-0.9996802806854248,0,0,0,-1,-1,,,,,,,,,,,,,,,,,,1,0.2
2021-11-29 12:48:45.312 -0500,,,,,,,,,,12746.00801041667,-0.0147552490234375,0.0154571533203125,-1.002182006835938,12746.00304241667,-0.01041281071690471,-0.01607718223867498,-0.01952283190806842,-0.001153804827481508,-0.001265029422938824,0.001318829134106636,-0.001062193885445595,-0.003789709880948067,-0.003508865833282471,XArbitraryZVertical,-0.009802662748452342,-0.007987193385084893,-0.005127500687741647,0.9999069107751439,-0.01607342623174191,0.01952159218490124,-0.99968022108078,0,0,0,-1,-1,,,,,,,,,,,,,,,,,,1,0.2
2021-11-29 12:48:45.322 -0500,,,,,,,,,,12746.01794741667,-0.0149383544921875,0.0167694091796875,-1.004364013671875,12746.01297941667,-0.01040933885212308,-0.01611388299371057,-0.01948867720532994,0.007818118669092655,-0.007064961828291416,-0.002084291307255626,0.001354876905679703,-0.004030222073197365,-0.002501726150512695,XArbitraryZVertical,-0.009785666757798368,-0.008005648936202434,-0.005125723261973677,0.9999069830432223,-0.0161101259291172,0.01948744431138039,-0.9996802806854248,0,0,0,-1,-1,,,,,,,,,,,,,,,,,,1,0.2
2021-11-29 12:48:45.332 -0500,,,,,,,,,,12746.02788441667,-0.0137481689453125,0.0156097412109375,-1.005355834960938,12746.02291641667,-0.01040424501917455,-0.0162777971863132,-0.01931572047280134,0.02439096942543983,-0.02862964197993279,-0.0001601572148501873,0.001335687935352325,-0.002545041963458061,-0.004683017730712891,XArbitraryZVertical,-0.009699595906261202,-0.008088079888505953,-0.005123082670621094,0.9999071806746903,-0.01627404242753983,0.01931452006101608,-0.9996809959411621,0,0,0,-1,-1,,,,,,,,,,,,,,,,,,1,0.2
2021-11-29 12:48:45.342 -0500,,,,,,,,,,12746.03782141667,-0.015350341796875,0.0150146484375,-1.003524780273438,12746.03285241667,-0.01040993057621958,-0.01663024379176445,-0.01908265527230287,0.02245831303298473,-0.03890661522746086,0.0005973782390356064,0.002878280356526375,-0.003471687436103821,-0.005676150321960449,XArbitraryZVertical,-0.009584000208174695,-0.008264874673827229,-0.005125190399621182,0.9999068676337276,-0.01662644930183887,0.01908149756491184,-0.9996796846389771,0,0,0,-1,-1,,,,,,,,,,,,,,,,,,1,0.2
2021-11-29 12:48:45.352 -0500,,,,,,,,,,12746.04775841667,-0.0147247314453125,0.0151214599609375,-0.9990692138671875,12746.04278941667,-0.01041323595842754,-0.01692004196365408,-0.01888148383438678,0.01647499017417431,-0.02179340645670891,-0.002644753782078624,0.001565879210829735,-0.003865646198391914,-0.003846108913421631,XArbitraryZVertical,-0.009484181416068778,-0.008410276879441595,-0.005126310528193324,0.9999065020211313,-0.01691621914505959,0.01888036169111729,-0.9996786117553711,0,0,0,-1,-1,,,,,,,,,,,,,,,,,,1,0.2
2021-11-29 12:48:45.362 -0500,,,,,,,,,,12746.05769541667,-0.0127410888671875,0.01593017578125,-1.002532958984375,12746.05272641667,-0.01042985303295727,-0.01700300321189469,-0.01871019323040467,0.01925745978951454,0.001120130531489849,-0.001939681824296713,0.002274475991725922,-0.003587571904063225,0.0006112456321716309,XArbitraryZVertical,-0.009398826418291348,-0.008452127703154257,-0.005134956802464714,0.9999069768885467,-0.01699920743703842,0.01870910078287125,-0.9996804594993591,0,0,0,-1,-1,,,,,,,,,,,,,,,,,,1,0.2
2021-11-29 12:48:45.372 -0500,,,,,,,,,,12746.06763141667,-0.0131072998046875,0.01458740234375,-1.005279541015625,12746.06266341667,-0.01045826779733623,-0.01708070272120558,-0.01854423373437256,0.00916913989931345,-0.01898833364248276,-0.0060414825566113,0.004335848614573479,-0.002612927928566933,-0.002850711345672607,XArbitraryZVertical,-0.00931617452795035,-0.008491280719985419,-0.005149510347255332,0.9999073500698087,-0.01707693561911583,0.0185431707650423,-0.9996821880340576,0,0,0,-1,-1,,,,,,,,,,,,,,,,,,1,0.2
2021-11-29 12:48:45.382 -0500,,,,,,,,,,12746.07756841667,-0.015472412109375,0.016326904296875,-1.0028076171875,12746.07260041667,-0.0105151218751461,-0.01730788874545094,-0.01847260435541885,0.006499321199953556,-0.02280168049037457,-0.005414707586169243,0.004196770489215851,-0.003884082660079002,-0.005599915981292725,XArbitraryZVertical,-0.009281193328084343,-0.00860478998943277,-0.005177188418493692,0.9999064972411172,-0.0173040721565485,0.01847155392169952,-0.9996796250343323,0,0,0,-1,-1,,,,,,,,,,,,,,,,,,1,0.2
2021-11-29 12:48:45.398 -0500,,,,,,,,,,12746.08750541667,-0.0183258056640625,0.014068603515625,-1.001174926757812,12746.08253741667,-0.01056113324120217,-0.01746008119570975,-0.01833872419682131,0.02047186158597469,-0.008362819440662861,-0.002677244134247303,0.001983845606446266,-0.002010723575949669,-0.003128170967102051,XArbitraryZVertical,-0.009214852675207209,-0.008681023851837099,-0.005200072951610003,0.9999063938337034,-0.01745625771582127,0.01833769679069519,-0.9996794462203979,0,0,0,-1,-1,,,,,,,,,,,,,,,,,,1,0.2
2021-11-29 12:48:45.402 -0500,,,,,,,,,,12746.09744241667,-0.0166778564453125,0.013031005859375,-0.9992523193359375,12746.09247341667,-0.01056538944032922,-0.01744042623127811,-0.0181931707345479,0.006586672738194466,0.01265784446150064,-0.0007467190735042095,-0.0008891485631465912,-0.004123497754335403,-0.001492440700531006,XArbitraryZVertical,-0.009142049969301248,-0.008671567737275147,-0.005202929410467872,0.9999071483685145,-0.01743665523827076,0.01819216646254063,-0.9996824264526367,0,0,0,-1,-1,,,,,,,,,,,,,,,,,,1,0.2
2021-11-29 12:48:45.412 -0500,,,,,,,,,,12746.10737941667,-0.016357421875,0.013824462890625,-1.005905151367188,12746.10241041667,-0.01056104100065796,-0.01726218900333077,-0.01820243405532849,-0.003894197754561901,0.01890828460454941,0.002623511478304863,0.0005806144326925278,-0.005170352756977081,0.0004330873489379883,XArbitraryZVertical,-0.00914619949455573,-0.008582453049309989,-0.005201530267069696,0.9999078140027327,-0.01725847274065018,0.01820142939686775,-0.9996854066848755,0,0,0,-1,-1,,,,,,,,,,,,,,,,,,1,0.2
2021-11-29 12:48:45.422 -0500,,,,,,,,,,12746.11731641667,-0.01287841796875,0.0153961181640625,-1.005294799804688,12746.11234741667,-0.01055706304377394,-0.01716127826307801,-0.0181817559261982,0.006643664557486773,-0.001926358789205551,-0.001807722495868802,0.0008001793175935745,-0.004356222227215767,-0.006217658519744873,XArbitraryZVertical,-0.009135581858140202,-0.008532075795299078,-0.005200092089951596,0.9999083607032133,-0.01715759932994843,0.01818075403571129,-0.9996874928474426,0,0,0,-1,-1,,,,,,,,,,,,,,,,,,1,0.2
2021-11-29 12:48:45.432 -0500,,,,,,,,,,12746.12725241667,-0.0143890380859375,0.012847900390625,-1.003982543945312,12746.12228441667,-0.01055440523669053,-0.01720695736306322,-0.018127826183454,0.002664901781827211,-0.009323022328317165,0.0001821913756430149,0.004324864596128464,-0.002730647101998329,-0.005607128143310547,XArbitraryZVertical,-0.009108727302480748,-0.008555070172208273,-0.005198788154222429,0.9999083699926089,-0.01720328070223331,0.01812683418393135,-0.999687671661377,0,0,0,-1,-1,,,,,,,,,,,,,,,,,,1,0.2
2021-11-29 12:48:45.442 -0500,,,,,,,,,,12746.13718941667,-0.0137786865234375,0.014007568359375,-1.000885009765625,12746.13222141667,-0.01053604322286496,-0.01724675571835843,-0.01809020979237595,0.002553049009293318,0.002784674055874348,0.003007672261446714,0.002854041755199432,-0.005241254344582558,-0.004294872283935547,XArbitraryZVertical,-0.009089945394938842,-0.008575151536550958,-0.005189589713641609,0.9999084355175109,-0.01724307797849178,0.01808922365307808,-0.999687671661377,0,0,0,-1,-1,,,,,,,,,,,,,,,,,,1,0.2
2021-11-29 12:48:45.452 -0500,,,,,,,,,,12746.14712641667,-0.013214111328125,0.0147247314453125,-1.002838134765625,12746.14215841667,-0.01052949874875875,-0.01719283784065855,-0.01804887987075908,0.009480996057391167,0.00159051176160574,0.0006113601848483086,0.003410505130887032,-0.004040263593196869,-0.001195669174194336,XArbitraryZVertical,-0.009069113872344072,-0.008548334660634612,-0.005186741124513583,0.9999089326591361,-0.01718918979167938,0.01804790087044239,-0.9996893405914307,0,0,0,-1,-1,,,,,,,,,,,,,,,,,,1,0.2
2021-11-29 12:48:45.462 -0500,,,,,,,,,,12746.15706341667,-0.0135345458984375,0.0127105712890625,-1.00567626953125,12746.15209541667,-0.01052565766919762,-0.01728171936722001,-0.01795323921765535,0.00712276715785265,-0.02244807966053486,-0.002419982803985476,0.004063962027430534,-0.00322747603058815,-0.00314861536026001,XArbitraryZVertical,-0.009021511798005619,-0.008593044015116442,-0.005184833083196572,0.9999090058587009,-0.01727807335555553,0.01795227453112602,-0.999689519405365,0,0,0,-1,-1,,,,,,,,,,,,,,,,,,1,0.2
2021-11-29 12:48:45.472 -0500,,,,,,,,,,12746.16700041667,-0.0153350830078125,0.015655517578125,-1.00201416015625,12746.16203141667,-0.01051677951341819,-0.0175698088776767,-0.01790157161559211,0.007680166512727737,-0.03095235116779804,0.003873066976666451,0.004031544551253319,-0.005189975723624229,-0.005990803241729736,XArbitraryZVertical,-0.008996388723916282,-0.008737253807917509,-0.00517932320519177,0.9999079721979032,-0.01756609044969082,0.01790061593055725,-0.9996854662895203,0,0,0,-1,-1,,,,,,,,,,,,,,,,,,1,0.2
2021-11-29 12:48:45.481 -0500,,,,,,,,,,12746.17693741667,-0.0201416015625,0.011444091796875,-0.998046875,12746.17196841667,-0.01049365980321427,-0.01772939772825913,-0.01780130960887959,0.006186133250594139,0.001363144256174564,0.002692620735615492,0.002390576526522636,-0.002144781872630119,-0.002329707145690918,XArbitraryZVertical,-0.00894657389259519,-0.008817411991579361,-0.005167493349890018,0.9999077584377482,-0.01772565953433514,0.01780037023127079,-0.9996844530105591,0,0,0,-1,-1,,,,,,,,,,,,,,,,,,1,0.2
2021-11-29 12:48:45.491 -0500,,,,,,,,,,12746.18687341667,-0.0188446044921875,0.015472412109375,-1.00384521484375,12746.18190541667,-0.01045881392525674,-0.01759879072475052,-0.01778496479799705,0.0008291848935186863,0.01910432428121567,0.001300586387515068,-0.002546502277255058,-0.006339864805340767,0.001640141010284424,XArbitraryZVertical,-0.0089379124629327,-0.008752313913940732,-0.005150728628661784,0.9999084739215467,-0.01759509928524494,0.01778402738273144,-0.9996870160102844,0,0,0,-1,-1,,,,,,,,,,,,,,,,,,1,0.2
2021-11-29 12:48:45.501 -0500,,,,,,,,,,12746.19681041667,-0.0176239013671875,0.0131988525390625,-1.004226684570312,12746.19184241667,-0.01043686463331479,-0.01736672073007528,-0.01770156378119462,0.009785128757357597,0.02521501481533051,0.001727224793285131,-0.001481477171182632,-0.002228157594799995,-0.004152655601501465,XArbitraryZVertical,-0.008895523194034272,-0.00863660831520119,-0.00514115603000866,0.9999099130540967,-0.01736312732100487,0.01770063862204552,-0.9996925592422485,0,0,0,-1,-1,,,,,,,,,,,,,,,,,,1,0.2
2021-11-29 12:48:45.511 -0500,,,,,,,,,,12746.20674741667,-0.0181121826171875,0.013427734375,-1.000259399414062,12746.20177941667,-0.01040747979826114,-0.01713299926145681,-0.01771085344311046,-0.006884661503136158,0.01950120180845261,0.005378684960305691,-0.0004944279789924622,-0.00451100617647171,-0.004530251026153564,XArbitraryZVertical,-0.008899441443035214,-0.008519864094476538,-0.005127464350693462,0.9999109642838534,-0.01712947338819504,0.01770992763340473,-0.9996964335441589,0,0,0,-1,-1,,,,,,,,,,,,,,,,,,1,0.2
2021-11-29 12:48:45.521 -0500,,,,,,,,,,12746.21668441667,-0.016754150390625,0.0125885009765625,-1.000686645507812,12746.21171541667,-0.0103529944172118,-0.01684896622868025,-0.01779154035139756,-0.01282963529229164,0.03619413077831268,0.007097089663147926,-0.001266680657863617,-0.004362797364592552,-0.0005595684051513672,XArbitraryZVertical,-0.008938824454920356,-0.00837789040025444,-0.005101145970111531,0.9999119862452213,-0.01684550195932388,0.01779060252010822,-0.9996998310089111,0,0,0,-1,-1,,,,,,,,,,,,,,,,,,1,0.2
2021-11-29 12:48:45.531 -0500,,,,,,,,,,12746.22662141667,-0.01116943359375,0.0149078369140625,-1.0072021484375,12746.22165241667,-0.01026415212068013,-0.01649825338834596,-0.01793027506474842,-0.01596976816654205,0.02575933188199997,0.009835617616772652,-0.0002592951059341431,-0.00534074567258358,-0.0009834170341491699,XArbitraryZVertical,-0.009006926517460502,-0.008202585074027519,-0.005057720600959524,0.9999130704595003,-0.01649485342204571,0.01792931370437145,-0.9997031688690186,0,0,0,-1,-1,,,,,,,,,,,,,,,,,,1,0.2
2021-11-29 12:48:45.541 -0500,,,,,,,,,,12746.23655841667,-0.0109405517578125,0.0163421630859375,-1.006088256835938,12746.23158941667,-0.01020705053315453,-0.01641211336264748,-0.01801741137346939,-0.001616396009922028,-0.009391898289322853,0.002180494833737612,0.005239279940724373,-0.00310852937400341,-0.007499098777770996,XArbitraryZVertical,-0.009050040257579274,-0.008159550585488683,-0.005029200817744961,0.9999131544037555,-0.01640871353447437,0.01801643706858158,-0.999703049659729,0,0,0,-1,-1,,,,,,,,,,,,,,,,,,1,0.2
2021-11-29 12:48:45.551 -0500,,,,,,,,,,12746.24649441667,-0.0133209228515625,0.0152130126953125,-1.005294799804688,12746.24152641667,-0.01017905937718362,-0.01659043716279163,-0.01801870110971676,0.002181537915021181,-0.02707715146243572,0.001161835622042418,0.005646431818604469,-0.001675494015216827,-0.006388187408447266,XArbitraryZVertical,-0.009051018021514949,-0.008248828057218415,-0.005014394160688279,0.9999124849975829,-0.01658698357641697,0.01801772601902485,-0.9997000694274902,0,0,0,-1,-1,,,,,,,,,,,,,,,,,,1,0.2
2021-11-29 12:48:45.561 -0500,,,,,,,,,,12746.25643141667,-0.014984130859375,0.014312744140625,-1.001708984375,12746.25146341667,-0.01017373959776562,-0.01689604456448615,-0.01795332463474127,0.008721995167434216,-0.02778908237814903,0.001857719384133816,0.003571594133973122,-0.002739278599619865,-0.005598664283752441,XArbitraryZVertical,-0.009019076658176473,-0.008401811270978323,-0.005010629146348273,0.9999114985138043,-0.01689251698553562,0.01795236021280289,-0.9996961355209351,0,0,0,-1,-1,,,,,,,,,,,,,,,,,,1,0.2
2021-11-29 12:48:45.571 -0500,,,,,,,,,,12746.26636841667,-0.01739501953125,0.012786865234375,-1.001785278320312,12746.26140041667,-0.01015394140300055,-0.01702840185316907,-0.01785523276334311,0.007638621143996716,-0.0005425466224551201,0.003534712363034487,0.002040734514594078,-0.003541471436619759,-0.002013325691223145,XArbitraryZVertical,-0.008970283188190906,-0.008468326339039538,-0.005000554009447927,0.9999113914663473,-0.01702486537396908,0.01785428449511528,-0.9996956586837769,0,0,0,-1,-1,,,,,,,,,,,,,,,,,,1,0.2
2021-11-29 12:48:45.581 -0500,,,,,,,,,,12746.27630541667,-0.01641845703125,0.0128021240234375,-1.002166748046875,12746.27133741667,-0.01014462782458591,-0.01704064041355471,-0.01784346500866374,-0.003716831095516682,0.0002850303426384926,-0.002953547285869718,-0.0003579165786504745,-0.005055584013462067,-0.002089619636535645,XArbitraryZVertical,-0.008964390886382404,-0.0084745170599338,-0.00499589309072907,0.9999114246681798,-0.01703710295259953,0.01784251816570759,-0.9996956586837769,0,0,0,-1,-1,,,,,,,,,,,,,,,,,,1,0.2
2021-11-29 12:48:45.591 -0500,,,,,,,,,,12746.28624241667,-0.0182342529296875,0.01300048828125,-1.000823974609375,12746.28127341667,-0.01018287502965161,-0.01695469683229728,-0.01795350212442113,-0.01687604188919067,0.02149870619177818,-0.005048390012234449,0.0005326960235834122,-0.005150344222784042,-0.002471625804901123,XArbitraryZVertical,-0.009019351373981013,-0.008431093633577984,-0.005014931486295815,0.9999111698356954,-0.01695115305483341,0.01795253716409206,-0.9996951222419739,0,0,0,-1,-1,,,,,,,,,,,,,,,,,,1,0.2
2021-11-29 12:48:45.601 -0500,,,,,,,,,,12746.29617941667,-0.0151824951171875,0.01556396484375,-1.00537109375,12746.29121041667,-0.01018691158480959,-0.01669752043613952,-0.01805741382191548,0.000147682148963213,0.02692659571766853,0.00395988579839468,-0.001540230587124825,-0.005055874586105347,-0.001126408576965332,XArbitraryZVertical,-0.009070673561664463,-0.008302229274695115,-0.005017672741942036,0.999911865580687,-0.01669402234256268,0.01805643178522587,-0.9996975660324097,0,0,0,-1,-1,,,,,,,,,,,,,,,,,,1,0.2
2021-11-29 12:48:45.611 -0500,,,,,,,,,,12746.30611541667,-0.015167236328125,0.0130157470703125,-1.00042724609375,12746.30114741667,-0.010159060109864,-0.0164631858238088,-0.01806723248577775,-0.007160032168030739,0.02261440455913544,0.002320710103958845,0.001277260482311249,-0.002502216026186943,-0.005669772624969482,XArbitraryZVertical,-0.009074881104743337,-0.008185173786290705,-0.00500477065348182,0.9999127919735388,-0.01645975559949875,0.01806624978780746,-0.9997013211250305,0,0,0,-1,-1,,,,,,,,,,,,,,,,,,1,0.2
2021-11-29 12:48:45.621 -0500,,,,,,,,,,12746.31605241667,-0.01165771484375,0.0160980224609375,-1.007247924804688,12746.31108441667,-0.01012268765018959,-0.01628949732424937,-0.01809487326221312,0.001397237181663513,0.006439895369112492,0.003331113141030073,0.001118874177336693,-0.005078069865703583,-0.0007236003875732422,XArbitraryZVertical,-0.009088117905245174,-0.008098430767128363,-0.004987260660972994,0.99991351276545,-0.01628611050546169,0.0180938858538866,-0.9997036457061768,0,0,0,-1,-1,,,,,,,,,,,,,,,,,,1,0.2
2021-11-29 12:48:45.631 -0500,,,,,,,,,,12746.32598941667,-0.012908935546875,0.01422119140625,-1.003189086914062,12746.32102141667,-0.01011743856840396,-0.01635534967775575,-0.01804769295677947,0.00632461765781045,-0.01810060068964958,-0.0006553726270794868,0.004694243893027306,-0.001948624849319458,-0.007544457912445068,XArbitraryZVertical,-0.009064672119866645,-0.008131498517701678,-0.004984530789764564,0.9999135322122564,-0.01635195687413216,0.01804671250283718,-0.9997034072875977,0,0,0,-1,-1,,,,,,,,,,,,,,,,,,1,0.2
2021-11-29 12:48:45.641 -0500,,,,,,,,,,12746.33592641667,-0.0145263671875,0.0145263671875,-1.002456665039062,12746.33095841667,-0.01012908527435754,-0.01646563655500186,-0.01798466517981876,0.004407674074172974,-0.003561872057616711,-0.000358430203050375,0.003553293645381927,-0.003762435168027878,-0.003486335277557373,XArbitraryZVertical,-0.009033483723187203,-0.0081867464832727,-0.004990114746915398,0.9999133136180689,-0.01646222919225693,0.0179836954921484,-0.9997027516365051,0,0,0,-1,-1,,,,,,,,,,,,,,,,,,1,0.2
2021-11-29 12:48:45.651 -0500,,,,,,,,,,12746.34586341667,-0.0150146484375,0.014251708984375,-1.00164794921875,12746.34089441667,-0.01012416537273713,-0.01647461763048744,-0.01797041089869787,0.0005881688557565212,-0.001849992200732231,0.0005808668211102486,0.001944845542311668,-0.003443008288741112,-0.002753794193267822,XArbitraryZVertical,-0.009026359664242443,-0.008191295633040442,-0.004987673579345061,0.9999133310077482,-0.01647121272981167,0.01796944439411163,-0.9997028708457947,0,0,0,-1,-1,,,,,,,,,,,,,,,,,,1,0.2
2021-11-29 12:48:45.660 -0500,,,,,,,,,,12746.35580041667,-0.014129638671875,0.016143798828125,-1.005767822265625,12746.35083141667,-0.01012022117351568,-0.01652247740678487,-0.01791812631773322,0.008847696706652641,-0.01138304360210896,0.001552920788526535,0.001504428684711456,-0.003665391355752945,-0.001944899559020996,XArbitraryZVertical,-0.0090003231137602,-0.00821537572071806,-0.004985702949929104,0.9999133450462481,-0.01651907339692116,0.01791716739535332,-0.9997029900550842,0,0,0,-1,-1,,,,,,,,,,,,,,,,,,1,0.2
2021-11-29 12:48:45.670 -0500,,,,,,,,,,12746.36573641667,-0.014068603515625,0.0126495361328125,-1.004730224609375,12746.36076841667,-0.01010653529250793,-0.01677407480562243,-0.01781148134579473,0.009426668286323547,-0.04032574594020844,0.002326036337763071,0.002640988677740097,-0.00166667066514492,-0.006067097187042236,XArbitraryZVertical,-0.008947575999028411,-0.008341499033025482,-0.004978178268978175,0.9999127429817543,-0.0167706273496151,0.01781054027378559,-0.9997007250785828,0,0,0,-1,-1,,,,,,,,,,,,,,,,,,1,0.2
2021-11-29 12:48:45.680 -0500,,,,,,,,,,12746.37567341667,-0.01995849609375,0.0145111083984375,-1.000564575195312,12746.37070541667,-0.01006359436814212,-0.01710209519646393,-0.01769545859155456,0.0159322377294302,-0.01967532932758331,0.00284615159034729,0.003029981628060341,-0.005044929683208466,-0.005033016204833984,XArbitraryZVertical,-0.008890203261653722,-0.00850598298623916,-0.004955740627804052,0.9999120087239149,-0.01709858328104019,0.01769453473389149,-0.999697208404541,0,0,0,-1,-1,,,,,,,,,,,,,,,,,,1,0.2
2021-11-29 12:48:45.690 -0500,,,,,,,,,,12746.38561041667,-0.0158843994140625,0.0148468017578125,-1.002182006835938,12746.38064241667,-0.01006325532271489,-0.01722800512498334,-0.01748106965828217,0.02480509132146835,-0.007376317866146564,0.0001638159155845642,-0.002733973786234856,-0.002969002351164818,-0.0008657574653625488,XArbitraryZVertical,-0.008783328174255802,-0.008569480714243854,-0.004955939129484258,0.9999124841628532,-0.01722452044487,0.01748017966747284,-0.99969881772995,0,0,0,-1,-1,,,,,,,,,,,,,,,,,,1,0.2
2021-11-29 12:48:45.700 -0500,,,,,,,,,,12746.39554741667,-0.016143798828125,0.0141143798828125,-1.003219604492188,12746.39057941667,-0.010079712833993,-0.01731791413306906,-0.01728323094978958,0.01392181776463985,-0.01109871827065945,-0.002497348003089428,0.00143006257712841,-0.002435499802231789,-0.002481281757354736,XArbitraryZVertical,-0.008684710826906883,-0.008614864541356277,-0.004964632899893812,0.9999129586923882,-0.01731446199119091,0.01728237047791481,-0.9997007250785828,0,0,0,-1,-1,,,,,,,,,,,,,,,,,,1,0.2
2021-11-29 12:48:45.710 -0500,,,,,,,,,,12746.40548441667,-0.01568603515625,0.0123291015625,-1.002059936523438,12746.40051541667,-0.01008347747322135,-0.01735696686869437,-0.01723435556085773,-0.002873674035072327,0.001543307676911354,0.001150383614003658,0.001209719106554985,-0.003119053319096565,-0.00351870059967041,XArbitraryZVertical,-0.008660388877409487,-0.00863449827598421,-0.004966558825512347,0.9999129449740736,-0.01735351793467999,0.01723350211977959,-0.9997009038925171,0,0,0,-1,-1,,,,,,,,,,,,,,,,,,1,0.2
2021-11-29 12:48:45.720 -0500,,,,,,,,,,12746.41542141667,-0.014801025390625,0.0120849609375,-1.001739501953125,12746.41045241667,-0.01004678930029325,-0.01730693268801057,-0.01728001633993645,-0.00455093290656805,0.01380633190274239,0.006018242798745632,0.001617448404431343,-0.004949986934661865,-0.002358973026275635,XArbitraryZVertical,-0.00868293490392558,-0.008609525676011115,-0.004948234355014024,0.9999130755059797,-0.01730348542332649,0.01727915555238724,-0.9997009634971619,0,0,0,-1,-1,,,,,,,,,,,,,,,,,,1,0.2
2021-11-29 12:48:45.730 -0500,,,,,,,,,,12746.42535741667,-0.0132904052734375,0.01605224609375,-1.0048828125,12746.42038941667,-0.009999240031347939,-0.01715762032618193,-0.01726893229273034,0.009584592655301094,0.01138631626963615,0.004654970951378345,0.00235319696366787,-0.00518304668366909,-0.002035737037658691,XArbitraryZVertical,-0.008676821396378388,-0.008535110887552747,-0.004925157988166362,0.9999138359501161,-0.01715422049164772,0.01726807467639446,-0.9997037053108215,0,0,0,-1,-1,,,,,,,,,,,,,,,,,,1,0.2
2021-11-29 12:48:45.740 -0500,,,,,,,,,,12746.43529441667,-0.0117950439453125,0.0130767822265625,-1.006851196289062,12746.43032641667,-0.009971512328019237,-0.0171855954392421,-0.01713702124485901,0.01026742719113827,-0.01705311425030231,0.0005648881196975708,0.003891823813319206,-0.001083869487047195,-0.00517725944519043,XArbitraryZVertical,-0.008610821962436097,-0.008549551221406548,-0.004911743502707316,0.9999143487523424,-0.01718222536146641,0.01713618263602257,-0.9997054934501648,0,0,0,-1,-1,,,,,,,,,,,,,,,,,,1,0.2
2021-11-29 12:48:45.750 -0500,,,,,,,,,,12746.44523141667,-0.0160980224609375,0.0135498046875,-1.002410888671875,12746.44026341667,-0.009982297462169804,-0.01743099608629012,-0.01709020742983439,-0.0007058610208332539,-0.02837873995304108,-0.003159542800858617,0.005632523447275162,-0.004012525081634521,-0.007149100303649902,XArbitraryZVertical,-0.008588066327866423,-0.008672312942318055,-0.004916283923199481,0.999913481923703,-0.01742756739258766,0.01708937622606754,-0.9997020959854126,0,0,0,-1,-1,,,,,,,,,,,,,,,,,,1,0.2
2021-11-29 12:48:45.760 -0500,,,,,,,,,,12746.45516841667,-0.0162200927734375,0.0125732421875,-1.002243041992188,12746.45020041667,-0.01001563492226278,-0.01765749942058602,-0.01704211092361906,0.009655965492129326,-0.01393914595246315,-0.0007073041051626205,0.001555996015667915,-0.003491412848234177,-0.002711951732635498,XArbitraryZVertical,-0.008564723036381353,-0.008785533482272838,-0.0049321916970834,0.9999126533330928,-0.01765401847660542,0.0170412864536047,-0.9996989369392395,0,0,0,-1,-1,,,,,,,,,,,,,,,,,,1,0.2
2021-11-29 12:48:45.770 -0500,,,,,,,,,,12746.46510541667,-0.01776123046875,0.0137176513671875,-1.000030517578125,12746.46013641667,-0.01000144455283715,-0.01772351910282815,-0.01697910412566389,-0.0005708388052880764,0.001818778924643993,0.001942274626344442,0.001499945297837257,-0.004404976963996887,-0.002544224262237549,XArbitraryZVertical,-0.008533322831585298,-0.008818761274707437,-0.004925095006084623,0.9999126442806531,-0.01772003620862961,0.01697828806936741,-0.99969881772995,0,0,0,-1,-1,,,,,,,,,,,,,,,,,,1,0.2
2021-11-29 12:48:45.780 -0500,,,,,,,,,,12746.47504241667,-0.0155487060546875,0.0126800537109375,-1.002227783203125,12746.47007341667,-0.009971947908084023,-0.01761351240387611,-0.01694725979863551,0.004486504010856152,0.02109486982226372,0.001277283765375614,-0.0001511573791503906,-0.003228727728128433,-0.0003291964530944824,XArbitraryZVertical,-0.008517001847279637,-0.008763969087198309,-0.004910958177376263,0.9999133410451669,-0.01761007308959961,0.01694644801318645,-0.9997013211250305,0,0,0,-1,-1,,,,,,,,,,,,,,,,,,1,0.2
2021-11-29 12:48:45.790 -0500,,,,,,,,,,12746.48497941667,-0.0147552490234375,0.0123748779296875,-1.003631591796875,12746.48001041667,-0.009960203329491539,-0.01742796786333178,-0.01693215350691762,-0.000387879554182291,0.01487718801945448,0.002550274599343538,0.001875881105661392,-0.004251223057508469,-0.002522945404052734,XArbitraryZVertical,-0.0085089430652622,-0.008671293280704867,-0.004905942793411059,0.999914211258233,-0.01742458716034889,0.01693134382367134,-0.9997048377990723,0,0,0,-1,-1,,,,,,,,,,,,,,,,,,1,0.2
2021-11-29 12:48:45.800 -0500,,,,,,,,,,12746.49491541667,-0.0153961181640625,0.0141143798828125,-1.003448486328125,12746.48994741667,-0.00997817711082412,-0.01738142899300504,-0.01691080409178286,-0.0002850815653800964,-0.007175981998443604,-0.005620037205517292,0.002622822299599648,-0.004535052925348282,-0.003925561904907227,XArbitraryZVertical,-0.008498232457354692,-0.008648003031606915,-0.004915219915281455,0.9999145028108056,-0.017378069460392,0.01690999791026115,-0.999705970287323,0,0,0,-1,-1,,,,,,,,,,,,,,,,,,1,0.2
2021-11-29 12:48:45.810 -0500,,,,,,,,,,12746.50485241667,-0.018707275390625,0.0119781494140625,-1.000396728515625,12746.49988441667,-0.01001669762234947,-0.01739812603992503,-0.0169181146740769,-0.003655311651527882,0.006366990506649017,-0.004432267509400845,0.001998642459511757,-0.002802861854434013,-0.003742873668670654,XArbitraryZVertical,-0.008502095173151033,-0.008656168569302101,-0.004934375611731634,0.9999143067506692,-0.01739475876092911,0.01691730692982674,-0.9997055530548096,0,0,0,-1,-1,,,,,,,,,,,,,,,,,,1,0.2
2021-11-29 12:48:45.819 -0500,,,,,,,,,,12746.51478941667,-0.015869140625,0.0137176513671875,-1.003005981445312,12746.50982141667,-0.01005114891846902,-0.01727712913088365,-0.01697773620389253,-0.009233037009835243,0.01473344396799803,1.441221684217453e-05,-0.001433495432138443,-0.004998702555894852,-0.0006900429725646973,XArbitraryZVertical,-0.008531752994886422,-0.008595376958539161,-0.004951855424408057,0.9999144802645681,-0.01727377995848656,0.01697692088782787,-0.9997066855430603,0,0,0,-1,-1,,,,,,,,,,,,,,,,,,1,0.2
2021-11-29 12:48:45.830 -0500,,,,,,,,,,12746.52472641667,-0.01568603515625,0.012908935546875,-1.003997802734375,12746.51975741667,-0.01004910213608847,-0.01712603077919098,-0.0170042945902157,0.004254808649420738,0.01609431952238083,0.002576906234025955,0.001253576949238777,-0.003285754472017288,-0.003297150135040283,XArbitraryZVertical,-0.008544648191177732,-0.008519775274199066,-0.004951362400170261,0.9999150202315226,-0.01712271757423878,0.01700347475707531,-0.9997088313102722,0,0,0,-1,-1,,,,,,,,,,,,,,,,,,1,0.2
2021-11-29 12:48:45.839 -0500,,,,,,,,,,12746.53466341667,-0.013153076171875,0.014068603515625,-1.005462646484375,12746.52969441667,-0.0100487599074378,-0.01709055303725327,-0.01695458650041513,0.002929353620857,-0.00914642121642828,-0.003685117699205875,0.001401230692863464,-0.004044769331812859,-0.004287540912628174,XArbitraryZVertical,-0.008519707033601378,-0.008502166090046783,-0.004951556330193947,0.9999153764878697,-0.01708726398646832,0.01695377379655838,-0.9997102618217468,0,0,0,-1,-1,,,,,,,,,,,,,,,,,,1,0.2
2021-11-29 12:48:45.849 -0500,,,,,,,,,,12746.54460041667,-0.017242431640625,0.0126190185546875,-1.000213623046875,12746.53963141667,-0.01005636694475859,-0.0172461387590933,-0.01694309729884319,-0.0009948140941560268,-0.01576331071555614,0.001322690397500992,0.004089733585715294,-0.002873616293072701,-0.005754828453063965,XArbitraryZVertical,-0.008514380593599883,-0.008579949090076797,-0.004954746437236045,0.9999147577020776,-0.01724280789494514,0.01694228686392307,-0.9997077584266663,0,0,0,-1,-1,,,,,,,,,,,,,,,,,,1,0.2
2021-11-29 12:48:45.859 -0500,,,,,,,,,,12746.55453641667,-0.0156402587890625,0.014556884765625,-1.00274658203125,12746.54956841667,-0.01005367887325477,-0.01731320286983736,-0.01697233853539867,-0.004553063772618771,-0.0007108254358172417,-0.001719571650028229,6.74128532409668e-05,-0.00435243546962738,-0.0005074739456176758,XArbitraryZVertical,-0.008529154506580202,-0.008613415155440984,-0.004952989828083466,0.9999143529715296,-0.01730984449386597,0.0169715229421854,-0.9997061491012573,0,0,0,-1,-1,,,,,,,,,,,,,,,,,,1,0.2
2021-11-29 12:48:45.869 -0500,,,,,,,,,,12746.56447341667,-0.0156402587890625,0.0148162841796875,-1.0030517578125,12746.55950541667,-0.01006974663703714,-0.01731560719730497,-0.01700789744865372,-0.001771392300724983,-0.003674124367535114,-0.00205566268414259,0.001671979203820229,-0.00245012529194355,-0.003041088581085205,XArbitraryZVertical,-0.008547008396379245,-0.008614458677363943,-0.004960858537306352,0.999914058494258,-0.01731223799288273,0.01700707711279392,-0.9997054934501648,0,0,0,-1,-1,,,,,,,,,,,,,,,,,,1,0.2
2021-11-29 12:48:45.879 -0500,,,,,,,,,,12746.57441041667,-0.0159759521484375,0.0128021240234375,-1.00384521484375,12746.56944241667,-0.0100843621310571,-0.01742384678951384,-0.01703542474751756,-0.008300930261611938,-0.01936919800937176,-0.002205864759162068,0.001780180260539055,-0.002218250185251236,-0.003348588943481445,XArbitraryZVertical,-0.008561102348264096,-0.008668440624580198,-0.004967582418007171,0.9999134741414351,-0.01742043718695641,0.01703460142016411,-0.9997031092643738,0,0,0,-1,-1,,,,,,,,,,,,,,,,,,1,0.2
2021-11-29 12:48:45.900 -0500,,,,,,,,,,12746.58434741667,-0.01812744140625,0.0139617919921875,-1.000015258789062,12746.57937841667,-0.01010034887974402,-0.01759028103246836,-0.01717873760817457,-0.01942308992147446,-0.01383195444941521,0.001164631918072701,0.001610826700925827,-0.004375699907541275,-0.004147469997406006,XArbitraryZVertical,-0.008633236139797572,-0.008751215216589038,-0.0049742295748722,0.999912055846969,-0.01758677884936333,0.0171778928488493,-0.999697744846344,0,0,0,-1,-1,,,,,,,,,,,,,,,,,,1,0.2
2021-11-29 12:48:45.912 -0500,,,,,,,,,,12746.59428441667,-0.015899658203125,0.013916015625,-1.000534057617188,12746.58931541667,-0.01011586171067232,-0.0175855138540477,-0.0173917179607211,-0.02566740475594997,0.012661705724895,-0.002420249162241817,-0.0005454923957586288,-0.003428980708122253,-0.0003210902214050293,XArbitraryZVertical,-0.008739772907103829,-0.008748218286927118,-0.004981064994095353,0.9999111130594773,-0.01758194901049137,0.01739084161818027,-0.9996941685676575,0,0,0,-1,-1,,,,,,,,,,,,,,,,,,1,0.2
2021-11-29 12:48:45.914 -0500,,,,,,,,,,12746.60422141667,-0.01470947265625,0.0153350830078125,-1.004104614257812,12746.59925241667,-0.0101445450207452,-0.01743132678032138,-0.01768369756084685,-0.02859661541879177,0.01633287221193314,-0.002854876918718219,0.001528061926364899,-0.003766691312193871,-0.0008423328399658203,XArbitraryZVertical,-0.008885490122834839,-0.008670254811305272,-0.004994800437362244,0.999910419149708,-0.01742771826684475,0.01768277585506439,-0.9996917247772217,0,0,0,-1,-1,,,,,,,,,,,,,,,,,,1,0.2
2021-11-29 12:48:45.919 -0500,,,,,,,,,,12746.61415741667,-0.013580322265625,0.013946533203125,-1.006301879882812,12746.60918941667,-0.01020164153166462,-0.01737215229584731,-0.01789462315544593,-0.01936130411922932,-0.009203612804412842,-0.007592241279780865,0.0026590246707201,-0.002558516338467598,-0.004415571689605713,XArbitraryZVertical,-0.008991042015485782,-0.008639870280150676,-0.005022688130992966,0.9999096244290748,-0.0173684973269701,0.01789366826415062,-0.9996890425682068,0,0,0,-1,-1,,,,,,,,,,,,,,,,,,1,0.2
2021-11-29 12:48:45.929 -0500,,,,,,,,,,12746.62409441667,-0.014190673828125,0.0162811279296875,-1.004302978515625,12746.61912641667,-0.01029933318256059,-0.01761433793403361,-0.0180574418184942,-0.01335587538778782,-0.03689569234848022,-0.01322482712566853,0.00403023324906826,-0.004109857603907585,-0.00661998987197876,XArbitraryZVertical,-0.009073479641098049,-0.008760087032422438,-0.005069719874757054,0.9999076204275775,-0.01761055551469326,0.01805645972490311,-0.9996818900108337,0,0,0,-1,-1,,,,,,,,,,,,,,,,,,1,0.2
2021-11-29 12:48:45.939 -0500,,,,,,,,,,12746.63403141667,-0.015655517578125,0.0146331787109375,-1.003677368164062,12746.62906341667,-0.01043627441817457,-0.01798828165502534,-0.01815827335205122,-0.00737761240452528,-0.03747296705842018,-0.01284785568714142,0.00379367358982563,-0.001876078546047211,-0.004629611968994141,XArbitraryZVertical,-0.009125450739773144,-0.008946152779373981,-0.005136031572910646,0.9999051810573742,-0.01798434555530548,0.01815727539360523,-0.9996733665466309,0,0,0,-1,-1,,,,,,,,,,,,,,,,,,1,0.2
2021-11-29 12:48:45.948 -0500,,,,,,,,,,12746.64396841667,-0.0176544189453125,0.0159759521484375,-0.9996795654296875,12746.63900041667,-0.01058813846038164,-0.01826699419743548,-0.01821636123014295,-0.006001024506986141,-0.01277001760900021,-0.01648813113570213,0.002607431262731552,-0.003582106903195381,-0.00401008129119873,XArbitraryZVertical,-0.009155896695663685,-0.009084645953010494,-0.005210417532205343,0.999903339839358,-0.0182629469782114,0.0182153545320034,-0.9996672868728638,0,0,0,-1,-1,,,,,,,,,,,,,,,,,,1,0.2
2021-11-29 12:48:45.958 -0500,,,,,,,,,,12746.65390541667,-0.0132904052734375,0.0163116455078125,-1.0086669921875,12746.64893641667,-0.01072499024817685,-0.01840099523671456,-0.0181453860163084,0.02133446000516415,-0.02179114334285259,-0.01002810150384903,0.0007425080984830856,-0.00216837041079998,-1.347064971923828e-05,XArbitraryZVertical,-0.009121388544112171,-0.009151207347627708,-0.005278551876031822,0.9999026160671746,-0.01839692704379559,0.01814438961446285,-0.9996660947799683,0,0,0,-1,-1,,,,,,,,,,,,,,,,,,1,0.2
2021-11-29 12:48:45.968 -0500,,,,,,,,,,12746.66384241667,-0.0178985595703125,0.0151214599609375,-1.003005981445312,12746.65887341667,-0.01072438956558637,-0.01864212740249276,-0.01789061602930687,0.02259919419884682,-0.02319462969899178,0.005056042689830065,0.005347661674022675,-0.001577949151396751,-0.009000718593597412,XArbitraryZVertical,-0.008994649445549301,-0.009272457789896991,-0.005278345082564525,0.9999026771507979,-0.01863806508481503,0.01788966171443462,-0.9996662139892578,0,0,0,-1,-1,,,,,,,,,,,,,,,,,,1,0.2
2021-11-29 12:48:45.978 -0500,,,,,,,,,,12746.67377841667,-0.013885498046875,0.014495849609375,-1.0089111328125,12746.66881041667,-0.01064819582029799,-0.01885146857681718,-0.01761628767135091,0.04244986176490784,-0.02683676779270172,0.01302049309015274,0.0009488668292760849,-0.002493847161531448,-0.003338813781738281,XArbitraryZVertical,-0.008857693854557449,-0.009378202378823995,-0.005240609652953924,0.9999031247788834,-0.01884742639958858,0.01761537604033947,-0.9996671676635742,0,0,0,-1,-1,,,,,,,,,,,,,,,,,,1,0.2
2021-11-29 12:48:45.988 -0500,,,,,,,,,,12746.68371541667,-0.0211944580078125,0.0129547119140625,-0.99810791015625,12746.67874741667,-0.01057494349006212,-0.01913641037802291,-0.01714073622736715,0.0362769216299057,-0.02447294816374779,-0.003428522031754255,0.005246933549642563,-0.002643978223204613,-0.009241104125976562,XArbitraryZVertical,-0.008620339179683228,-0.009522260598632915,-0.005205010875441979,0.9999040340394343,-0.01913243159651756,0.01713989675045013,-0.9996700286865234,0,0,0,-1,-1,,,,,,,,,,,,,,,,,,1,0.2
2021-11-29 12:48:45.998 -0500,,,,,,,,,,12746.69365241667,-0.0189666748046875,0.0125732421875,-1.000869750976562,12746.68868441667,-0.01057862172776186,-0.01931283871922954,-0.01694928824001953,0.007666850928217173,-0.01424054987728596,0.00364643195644021,-0.001885592937469482,-0.003993695601820946,0.001561999320983887,XArbitraryZVertical,-0.00852510106580804,-0.009610964275841943,-0.005207017821777293,0.9999040197464336,-0.01930886507034302,0.01694847643375397,-0.9996699094772339,0,0,0,-1,-1,,,,,,,,,,,,,,,,,,1,0.2
2021-11-29 12:48:46.008 -0500,,,,,,,,,,12746.70358941667,-0.01739501953125,0.0132598876953125,-1.004058837890625,12746.69862141667,-0.01056059609277243,-0.01938679065613318,-0.0168518527531639,0.01092096790671349,-0.0060084518045187,0.002279164735227823,0.000416148453950882,-0.004277745261788368,-0.001199603080749512,XArbitraryZVertical,-0.0084764944567986,-0.00964827565195975,-0.005198165515685731,0.9999040232005462,-0.01938282325863838,0.01685105450451374,-0.999670147895813,0,0,0,-1,-1,,,,,,,,,,,,,,,,,,1,0.2
2021-11-29 12:48:46.018 -0500,,,,,,,,,,12746.71352641667,-0.0186004638671875,0.0133514404296875,-1.004165649414062,12746.70855741667,-0.01052632832223027,-0.01948142352127814,-0.01678778004880859,0.005251363851130009,-0.01495480909943581,0.002965194638818502,0.002082426100969315,-0.003527034074068069,-0.004389464855194092,XArbitraryZVertical,-0.008444541166244169,-0.009695904133857784,-0.005180945727624616,0.9999039074406146,-0.01947744563221931,0.01678699068725109,-0.9996693730354309,0,0,0,-1,-1,,,,,,,,,,,,,,,,,,1,0.2
2021-11-29 12:48:46.028 -0500,,,,,,,,,,12746.72346341667,-0.0155181884765625,0.0125274658203125,-1.00146484375,12746.71849441667,-0.01050228945156764,-0.01960974474703475,-0.01671310751332107,0.005081187933683395,-0.01157013140618801,0.001352651044726372,0.001005286350846291,-0.003360819071531296,-0.004497528076171875,XArbitraryZVertical,-0.008407423276875813,-0.009760358783879933,-0.005168753131898924,0.9999036962639659,-0.01960575021803379,0.01671233028173447,-0.9996681213378906,0,0,0,-1,-1,,,,,,,,,,,,,,659900926.0187367,0,0.2699966,100.9236,1,0.2
2021-11-29 12:48:46.038 -0500,,,,,,,,,,12746.73340041667,-0.01873779296875,0.0127105712890625,-1.0010986328125,12746.72843141667,-0.01049555249406525,-0.01968976723396303,-0.01674612130058796,-0.01117900758981705,-0.0055724261328578,0.0002671461552381516,0.004167547449469566,-0.004217803478240967,-0.001798868179321289,XArbitraryZVertical,-0.008424102328268497,-0.009800306486669108,-0.005164885349906235,0.9999031873597868,-0.01968573406338692,0.01674533821642399,-0.9996659755706787,0,0,0,-1,-1,,,,,,,,,,,,,,,,,,1,0.2
2021-11-29 12:48:46.048 -0500,,,,,,,,,,12746.74333641667,-0.01788330078125,0.0133514404296875,-1.001724243164062,12746.73836841667,-0.01049241704575922,-0.01963017540943186,-0.01690880790882442,-0.02144655957818031,0.01479862630367279,-0.001302520744502544,0.0008883159607648849,-0.004197360947728157,-0.001434206962585449,XArbitraryZVertical,-0.008505268137515839,-0.009770092872487406,-0.005162766659321267,0.9999028448123511,-0.01962610892951488,0.01690800301730633,-0.9996644258499146,0,0,0,-1,-1,,,,,,,,,,,,,,,,,,1,0.2
2021-11-29 12:48:46.058 -0500,,,,,,,,,,12746.75327341667,-0.0159454345703125,0.0172882080078125,-1.005813598632812,12746.74830541667,-0.01047036769544459,-0.01944974119735293,-0.01710319740350687,-0.01076542027294636,0.01708291843533516,0.004595449194312096,0.001562371850013733,-0.003750855103135109,-0.002059578895568848,XArbitraryZVertical,-0.008601881158694298,-0.009679461759060388,-0.005151561040313246,0.9999029246312071,-0.01944567076861858,0.01710236445069313,-0.9996646046638489,0,0,0,-1,-1,,,,,,,,,,,,,,,,,,1,0.2
2021-11-29 12:48:46.068 -0500,,,,,,,,,,12746.76321041667,-0.016204833984375,0.01385498046875,-1.004302978515625,12746.75824241667,-0.01044634807648482,-0.01931095100271814,-0.01710542160277504,0.007162714377045631,0.009167737327516079,0.001529884058982134,0.003361491486430168,0.0001836903393268585,-0.00614631175994873,XArbitraryZVertical,-0.008602520086748125,-0.00961017063623157,-0.005140138441856444,0.999903661666722,-0.01930692605674267,0.01710458658635616,-0.9996672868728638,0,0,0,-1,-1,,,,,,,,,,,,,,,,,,1,0.2
2021-11-29 12:48:46.078 -0500,,,,,,,,,,12746.77314741667,-0.017578125,0.01373291015625,-1.003082275390625,12746.76817841667,-0.01043286724301474,-0.01919957200329601,-0.01699784727979772,0.009901243261992931,0.01323575060814619,-0.0006196862086653709,0.002990785986185074,-0.0031419787555933,-0.004631698131561279,XArbitraryZVertical,-0.008548387189526746,-0.009554829145378661,-0.005134396287421787,0.9999047158769384,-0.01919561997056007,0.01699702814221382,-0.9996712803840637,0,0,0,-1,-1,,,,,,,,,,,,,,,,,,1,0.2
2021-11-29 12:48:46.088 -0500,,,,,,,,,,12746.78308366667,-0.0169525146484375,0.0121307373046875,-1.004150390625,12746.77811541667,-0.01041854331023982,-0.01907767432064114,-0.0168906343152148,0.009499904699623585,0.01009135600179434,3.145681694149971e-05,0.001495672389864922,-0.003156851977109909,-0.003406882286071777,XArbitraryZVertical,-0.008494404978904965,-0.009494230994360418,-0.005128269739516805,0.9999057728253384,-0.01907379552721977,0.01688983105123043,-0.9996753931045532,0,0,0,-1,-1,,,,,,,,,,,,,,,,,,1,0.2
2021-11-29 12:48:46.098 -0500,,,,,,,,,,12746.79302066667,-0.01824951171875,0.0161590576171875,-1.002548217773438,12746.78805166667,-0.01041391462055101,-0.01902871560679173,-0.01682688946143363,0.0008928342722356319,-0.0008581653237342834,0.001441334374248981,0.00207236036658287,-0.004695288836956024,-0.004472970962524414,XArbitraryZVertical,-0.008462388301864486,-0.009469942304130828,-0.005126468279589813,0.9999062625082171,-0.01902487315237522,0.01682609505951405,-0.9996774196624756,0,0,0,-1,-1,,,,,,,,,,,,,,,,,,1,0.2
2021-11-29 12:48:46.108 -0500,,,,,,,,,,12746.80295666667,-0.0182342529296875,0.0129241943359375,-1.003005981445312,12746.79798866667,-0.01039808362768667,-0.01904847068312804,-0.01683418028212532,-0.004953869618475437,-0.002809995785355568,0.0003249375149607658,0.0007951091974973679,-0.0006742570549249649,-0.002871274948120117,XArbitraryZVertical,-0.008466009291423547,-0.009479867013141676,-0.005118435250386646,0.9999061409121731,-0.01904461905360222,0.01683338545262814,-0.9996769428253174,0,0,0,-1,-1,,,,,,,,,,,,,,,,,,1,0.2
2021-11-29 12:48:46.118 -0500,,,,,,,,,,12746.81289366667,-0.017547607421875,0.0138397216796875,-1.002273559570312,12746.80792566667,-0.0103828124283358,-0.01906964606387808,-0.0167963725095119,0.008381110616028309,0.001096062362194061,0.002462390344589949,0.0008315499871969223,-0.003871321678161621,-0.003328800201416016,XArbitraryZVertical,-0.008447088269656627,-0.009490617279329455,-0.005110891413422188,0.9999063138629736,-0.01906580105423927,0.01679558306932449,-0.9996771216392517,0,0,0,-1,-1,,,,,,,,,,,,,,,,,,1,0.2
2021-11-29 12:48:46.127 -0500,,,,,,,,,,12746.82283066667,-0.015350341796875,0.0132293701171875,-1.002914428710938,12746.81786266667,-0.01036950190917219,-0.01908503631393798,-0.01671735793004636,0.006011962424963713,-0.007128044962882996,0.000724677462130785,0.001533603295683861,-0.002876788377761841,-0.002595365047454834,XArbitraryZVertical,-0.008407560885150839,-0.009498575935756827,-0.005104550499868735,0.9999065974578764,-0.01908121071755886,0.01671657897531986,-0.9996781945228577,0,0,0,-1,-1,,,,,,,,,,,,,,,,,,1,0.2
2021-11-29 12:48:46.137 -0500,,,,,,,,,,12746.83276766667,-0.0160675048828125,0.01275634765625,-1.005233764648438,12746.82779866667,-0.01034319198989079,-0.01918050815771892,-0.01665281179058118,0.008039959706366062,-0.01164213567972183,0.004712894558906555,0.003826331347227097,-0.003422603011131287,-0.003237009048461914,XArbitraryZVertical,-0.008375409153971003,-0.009546587683316402,-0.005091306427091515,0.9999064533773077,-0.0191766731441021,0.01665204204618931,-0.9996774196624756,0,0,0,-1,-1,,,,,,,,,,,,,,,,,,1,0.2
2021-11-29 12:48:46.147 -0500,,,,,,,,,,12746.84270466667,-0.0147247314453125,0.0133514404296875,-1.00311279296875,12746.83773566667,-0.01029689157370142,-0.01933902886290455,-0.01645762147109909,0.02703389152884483,-0.02087078802287579,0.0005051000043749809,0.003267699852585793,-0.003700461238622665,-0.005556166172027588,XArbitraryZVertical,-0.008278003891523601,-0.009626544691873781,-0.005068442336296981,0.9999066162509334,-0.01933520473539829,0.01645687781274319,-0.9996775984764099,0,0,0,-1,-1,,,,,,,,,,,,,,,,,,1,0.2
2021-11-29 12:48:46.157 -0500,,,,,,,,,,12746.85264166667,-0.0181427001953125,0.011962890625,-0.998565673828125,12746.84767266667,-0.01028109225398274,-0.0195094684798421,-0.01625811958635351,0.01223044376820326,-0.01234404556453228,0.0006061671301722527,0.004780923947691917,-0.002905895933508873,-0.003435194492340088,XArbitraryZVertical,-0.008178617350173494,-0.009712342316395598,-0.005060814994905016,0.9999066705870395,-0.01950565353035927,0.01625740341842175,-0.9996775388717651,0,0,0,-1,-1,,,,,,,,,,,,,,,,,,1,0.2
2021-11-29 12:48:46.167 -0500,,,,,,,,,,12746.86257766667,-0.017059326171875,0.0120849609375,-1.001495361328125,12746.85760966667,-0.01027657688027933,-0.01951726944592297,-0.01621964045395734,-0.001845694147050381,0.009252592921257019,-0.000814362894743681,0.001370763406157494,-0.004255969077348709,0.00111234188079834,XArbitraryZVertical,-0.00815937735642364,-0.009716361221726836,-0.005058714134991894,0.9999068047652977,-0.01951346360146999,0.01621892862021923,-0.9996780157089233,0,0,0,-1,-1,,,,,,,,,,,,,,,,,,1,0.2
2021-11-29 12:48:46.177 -0500,,,,,,,,,,12746.87251466667,-0.01654052734375,0.0125885009765625,-1.004653930664062,12746.86754666667,-0.01025470850465211,-0.0194157873307028,-0.01623661211505422,-0.001293621025979519,0.007194534875452518,0.00233522430062294,0.002352681010961533,-0.004150869324803352,-0.001815617084503174,XArbitraryZVertical,-0.008167499893441435,-0.009665669792324928,-0.005048112174574533,0.9999072975301949,-0.01941200904548168,0.01623589918017387,-0.9996797442436218,0,0,0,-1,-1,,,,,,,,,,,,,,,,,,1,0.2
2021-11-29 12:48:46.187 -0500,,,,,,,,,,12746.88245166667,-0.020721435546875,0.0124359130859375,-1.001251220703125,12746.87748366667,-0.01024002245103491,-0.01937244994316132,-0.01622073556825423,-0.002596438862383366,0.006488530896604061,0.002486225683242083,0.002828162163496017,-0.003631455823779106,-0.004973113536834717,XArbitraryZVertical,-0.008159382333853053,-0.009644104551460869,-0.00504102412740298,0.999907586446148,-0.01936868950724602,0.01622002385556698,-0.9996808171272278,0,0,0,-1,-1,,,,,,,,,,,,,,,,,,1,0.2
2021-11-29 12:48:46.197 -0500,,,,,,,,,,12746.89238866667,-0.0200347900390625,0.0132904052734375,-0.9993896484375,12746.88742066667,-0.01023019921802002,-0.01917036765497023,-0.01631103986753881,-0.01367066241800785,0.03227478638291359,0.001201516948640347,-0.001554790884256363,-0.003874335438013077,-0.001567959785461426,XArbitraryZVertical,-0.008203974046097471,-0.009542878336838397,-0.005036502729251014,0.9999082147139186,-0.01916664279997349,0.0163103174418211,-0.9996832609176636,0,0,0,-1,-1,,,,,,,,,,,,,,,,,,1,0.2
2021-11-29 12:48:46.207 -0500,,,,,,,,,,12746.90232566667,-0.0173492431640625,0.0129852294921875,-1.003982543945312,12746.89735666667,-0.01020765238288393,-0.01881532370880545,-0.0164785652889811,-0.01761293970048428,0.03346362337470055,0.005566171836107969,-0.001223130151629448,-0.003187345340847969,0.0002976059913635254,XArbitraryZVertical,-0.008286729500076809,-0.00936503129656439,-0.005025895281310372,0.9999092439707127,-0.01881165988743305,0.01647781953215599,-0.9996872544288635,0,0,0,-1,-1,,,,,,,,,,,,,,,,,,1,0.2
2021-11-29 12:48:46.218 -0500,,,,,,,,,,12746.91226266667,-0.0160064697265625,0.01593017578125,-1.006866455078125,12746.90729366667,-0.01016940911596862,-0.01852797392871089,-0.016562722789498,0.004408739507198334,0.01921883970499039,0.002718986012041569,0.001175129786133766,-0.003576667979359627,-0.004291296005249023,XArbitraryZVertical,-0.008327905948119984,-0.009221310660564619,-0.005007574348534938,0.9999103281752473,-0.01852437295019627,0.01656196638941765,-0.9996912479400635,0,0,0,-1,-1,,,,,,,,,,,,,,,,,,1,0.2
2021-11-29 12:48:46.228 -0500,,,,,,,,,,12746.92219966667,-0.01531982421875,0.0125579833984375,-1.006332397460938,12746.91723066667,-0.01016812126454326,-0.0184499505514999,-0.01646848605752559,0.01221553049981594,-0.006764822639524937,-0.002208661055192351,0.002439932897686958,-0.0005374979227781296,-0.007172226905822754,XArbitraryZVertical,-0.008280590341489619,-0.009182550725766703,-0.00500769185810317,0.9999111022198274,-0.01844640262424946,0.0164677407592535,-0.9996942281723022,0,0,0,-1,-1,,,,,,,,,,,,,,,,,,1,0.2
2021-11-29 12:48:46.237 -0500,,,,,,,,,,12746.93213566667,-0.0171661376953125,0.011688232421875,-0.99981689453125,12746.92716766667,-0.01016319421170363,-0.01851570907685026,-0.01639031133914908,0.003548006061464548,-0.0003993026912212372,-0.000318482518196106,0.003192340955138206,-0.003831524401903152,-0.006638109683990479,XArbitraryZVertical,-0.008241649039978406,-0.009215649692814708,-0.0050053201124321,0.9999110595099288,-0.01851216517388821,0.01638957671821117,-0.999694287776947,0,0,0,-1,-1,,,,,,,,,,,,,,,,,,1,0.2
2021-11-29 12:48:46.247 -0500,,,,,,,,,,12746.94207266667,-0.0146636962890625,0.014068603515625,-1.003509521484375,12746.93710466667,-0.01015001809868723,-0.01842625714357753,-0.01637529951757606,0.005932866595685482,0.01305338926613331,0.003897567745298147,0.001256605610251427,-0.004686266183853149,-0.000120699405670166,XArbitraryZVertical,-0.008233859872507406,-0.009171021048823788,-0.00499917092501498,0.9999115205564506,-0.01842274330556393,0.01637456752359867,-0.9996961951255798,0,0,0,-1,-1,,,,,,,,,,,,,,,,,,1,0.2
2021-11-29 12:48:46.257 -0500,,,,,,,,,,12746.95200966667,-0.0157012939453125,0.0122528076171875,-1.00274658203125,12746.94704166667,-0.01014173417112201,-0.01831813674413003,-0.01627821026056375,0.006016223691403866,0.006304606795310974,-0.002152601489797235,0.003650989383459091,-0.00220881775021553,-0.003809750080108643,XArbitraryZVertical,-0.008185011440367148,-0.009117249418237376,-0.004995921008706302,0.9999124378009407,-0.01831468567252159,0.0162774920463562,-0.9996997714042664,0,0,0,-1,-1,,,,,,,,,,,,,,,,,,1,0.2
2021-11-29 12:48:46.267 -0500,,,,,,,,,,12746.96194666667,-0.016448974609375,0.013916015625,-1.002349853515625,12746.95697766667,-0.01012668034985622,-0.01827225012116377,-0.01624922895797733,0.00088138272985816,0.0001825317740440369,-0.001630355603992939,0.002567527815699577,-0.003995638340711594,-0.003045499324798584,XArbitraryZVertical,-0.00817033861211295,-0.00909444375274236,-0.004988715302943701,0.9999128467675635,-0.01826882176101208,0.01624851301312447,-0.9997010827064514,0,0,0,-1,-1,,,,,,,,,,,,,,,,,,1,0.2
2021-11-29 12:48:46.277 -0500,,,,,,,,,,12746.97188366667,-0.0181427001953125,0.0123748779296875,-1.001998901367188,12746.96691466667,-0.01013844820679527,-0.01824788849532347,-0.01624845082295853,-0.002625200897455215,0.007006283849477768,-0.00162609457038343,0.001795491203665733,-0.002331651747226715,-0.002648293972015381,XArbitraryZVertical,-0.008169942316140958,-0.009082217999984677,-0.00499470184381115,0.9999129233353103,-0.01824446767568588,0.01624773629009724,-0.9997015595436096,0,0,0,-1,-1,,,,,,,,,,,,,,,,,,1,0.2
2021-11-29 12:48:46.286 -0500,,,,,,,,,,12746.98182066667,-0.016448974609375,0.0145721435546875,-1.00408935546875,12746.97685166667,-0.01015275239715416,-0.01817541657661451,-0.01623277614372189,0.01015530899167061,0.00526990182697773,0.0001190747134387493,2.931989729404449e-05,-0.003857115283608437,-0.002295792102813721,XArbitraryZVertical,-0.008161989303328565,-0.009045967051548224,-0.005002220865420848,0.9999132870176062,-0.01817202195525169,0.01623206399381161,-0.9997031092643738,0,0,0,-1,-1,,,,,,,,,,,,,,,,,,1,0.2
2021-11-29 12:48:46.296 -0500,,,,,,,,,,12746.99175666667,-0.0154571533203125,0.012847900390625,-1.005172729492188,12746.98678866667,-0.01016040942250422,-0.01820106026426343,-0.01611343589439409,0.01413327269256115,-0.01182299852371216,-0.0004231445491313934,0.001748720183968544,-0.001540528610348701,-0.004384756088256836,XArbitraryZVertical,-0.008102423354465245,-0.009059064192370245,-0.005006489925889201,0.9999136142463324,-0.01819769293069839,0.01611273922026157,-0.9997045397758484,0,0,0,-1,-1,,,,,,,,,,,,,,,,,,1,0.2
2021-11-29 12:48:46.306 -0500,,,,,,,,,,12747.00169366667,-0.017120361328125,0.013336181640625,-1.001861572265625,12746.99672566667,-0.01012977171316086,-0.01836880540210171,-0.0159577942736898,0.01639003492891788,-0.01847743801772594,0.003571597393602133,0.002908280119299889,-0.003109147772192955,-0.00546872615814209,XArbitraryZVertical,-0.008024889202331532,-0.009143453492462749,-0.004991210689767736,0.9999135442707899,-0.01836543343961239,0.01595711708068848,-0.9997040033340454,0,0,0,-1,-1,,,,,,,,,,,,,,,,,,1,0.2
2021-11-29 12:48:46.316 -0500,,,,,,,,,,12747.01163066667,-0.0172576904296875,0.0113525390625,-0.99920654296875,12747.00666266667,-0.01009377413474162,-0.01845054900030258,-0.01586210371897911,0.0010595484636724,0.00305728055536747,0.002236021682620049,0.001326821744441986,-0.002525189891457558,-0.002157509326934814,XArbitraryZVertical,-0.007977086513519159,-0.009184710843655276,-0.004973328584082269,0.9999136716539873,-0.01844718120992184,0.01586143858730793,-0.9997040033340454,0,0,0,-1,-1,,,,,,,,,,,,,,,,,,1,0.2
2021-11-29 12:48:46.327 -0500,,,,,,,,,,12747.02156766667,-0.01605224609375,0.0120697021484375,-1.002914428710938,12747.01659966667,-0.0100817940628853,-0.01831663511368333,-0.0158731226455336,-0.007007965818047523,0.01892998814582825,-0.0001477738842368126,0.001055613160133362,-0.00451984815299511,0.0004997849464416504,XArbitraryZVertical,-0.00798220805629778,-0.009117779486639105,-0.004967822610032605,0.999914247330501,-0.01831330358982086,0.01587245613336563,-0.9997063279151917,0,0,0,-1,-1,,,,,,,,,,,,,,,,,,1,0.2
2021-11-29 12:48:46.336 -0500,,,,,,,,,,12747.03150466667,-0.015777587890625,0.0149993896484375,-1.00262451171875,12747.02653566667,-0.01006478549641018,-0.01810990988535558,-0.0159543785556083,-0.01035263016819954,0.02152370661497116,0.003241630736738443,0.002054369077086449,-0.003883931785821915,-0.003205657005310059,XArbitraryZVertical,-0.008022242375366593,-0.009014286242239272,-0.004959774615592496,0.9999149007198118,-0.01810661517083645,0.01595370098948479,-0.9997087717056274,0,0,0,-1,-1,,,,,,,,,,,,,,,,,,1,0.2
2021-11-29 12:48:46.346 -0500,,,,,,,,,,12747.04144166667,-0.0150604248046875,0.0110321044921875,-1.00347900390625,12747.03647266667,-0.01005722176053656,-0.01792342316009539,-0.01604459775190307,-0.009758211672306061,0.0166863426566124,0.00430583069100976,0.002142569050192833,-0.001044454053044319,-0.002913773059844971,XArbitraryZVertical,-0.008066852335883286,-0.008920851540185714,-0.004956335276967842,0.9999153424611591,-0.01792015694081783,0.01604390889406204,-0.9997106790542603,0,0,0,-1,-1,,,,,,,,,,,,,,,,,,1,0.2
2021-11-29 12:48:46.356 -0500,,,,,,,,,,12747.05137766667,-0.0163116455078125,0.01416015625,-1.00384521484375,12747.04640966667,-0.01003889571200669,-0.01780396391707306,-0.01618554863540702,-0.0182811263948679,0.008907613344490528,-1.015141606330872e-07,0.002740267664194107,-0.005152668803930283,-0.003768444061279297,XArbitraryZVertical,-0.008136943599080263,-0.008860841090055423,-0.004947024110793712,0.999915468392134,-0.01780069060623646,0.0161848422139883,-0.9997105598449707,0,0,0,-1,-1,,,,,,,,,,,,,,,,,,1,0.2
2021-11-29 12:48:46.366 -0500,,,,,,,,,,12747.06131466667,-0.0155029296875,0.0127410888671875,-1.003250122070312,12747.05634666667,-0.0100296263502218,-0.01778036263907554,-0.01629784433594939,-0.005668128840625286,0.0002707159146666527,0.001594865694642067,0.001465421169996262,-0.002136899158358574,-0.004136025905609131,XArbitraryZVertical,-0.008192987222277586,-0.008848793521019751,-0.004941984400396074,0.9999151466531827,-0.01777706481516361,0.01629712246358395,-0.9997091293334961,0,0,0,-1,-1,,,,,,,,,,,,,,,,,,1,0.2
2021-11-29 12:48:46.377 -0500,,,,,,,,,,12747.07125166667,-0.01885986328125,0.013458251953125,-1.002960205078125,12747.06628366667,-0.01007012997250215,-0.01773025199679459,-0.01633552148468332,-0.003313362598419189,0.0143976854160428,-0.009448597207665443,0.002224026247859001,-0.003593636676669121,-0.003540694713592529,XArbitraryZVertical,-0.00821187899849193,-0.008823478139974824,-0.004962271968654477,0.9999151213482042,-0.01772695779800415,0.01633479446172714,-0.99970942735672,0,0,0,-1,-1,,,,,,,,,,,,,,,,,,1,0.2
2021-11-29 12:48:46.386 -0500,,,,,,,,,,12747.08118866667,-0.017669677734375,0.013214111328125,-1.004058837890625,12747.07622066667,-0.01017096028905735,-0.01750472457755343,-0.01637762781342612,-0.005088359117507935,0.02674729749560356,-0.007754560559988022,-0.001358378678560257,-0.002918574959039688,-0.003247499465942383,XArbitraryZVertical,-0.008232809701608728,-0.008710201211805803,-0.005013423609666111,0.9999157106719231,-0.01750148274004459,0.01637689583003521,-0.9997127056121826,0,0,0,-1,-1,,,,,,,,,,,,,,,,,,1,0.2
2021-11-29 12:48:46.419 -0500,,,,,,,,,,12747.09112566667,-0.0140838623046875,0.0151824951171875,-1.004776000976562,12747.08615666667,-0.01023906185530654,-0.01730304327639612,-0.01632188845729333,0.01588083803653717,0.01340036746114492,-0.005144529975950718,-0.0003698002547025681,-0.003106985241174698,-0.004341661930084229,XArbitraryZVertical,-0.008204730311119884,-0.008609233750235444,-0.00504854421228817,0.9999165930114298,-0.01729987561702728,0.01632116362452507,-0.999717116355896,0,0,0,-1,-1,,,,,,,,,,,,,,,,,,1,0.2
2021-11-29 12:48:46.423 -0500,,,,,,,,,,12747.10106266667,-0.0135955810546875,0.01409912109375,-1.003204345703125,12747.09609366667,-0.01025456835970508,-0.01715530609444004,-0.01609224075069764,0.02731245756149292,0.01292499247938395,-0.001267499988898635,0.003068381920456886,-0.0009089838713407516,-0.005052566528320312,XArbitraryZVertical,-0.008089609530551172,-0.008535904673165447,-0.00505789269018065,0.9999180761824006,-0.01715224422514439,0.01609154604375362,-0.9997233748435974,0,0,0,-1,-1,,,,,,,,,,,,,,,,,,1,0.2
2021-11-29 12:48:46.426 -0500,,,,,,,,,,12747.11099966667,-0.0126495361328125,0.0120697021484375,-1.002670288085938,12747.10603066667,-0.0102991540180377,-0.01709882931633461,-0.01591970323647529,0.008557145483791828,-0.001180374063551426,-0.00577410077676177,0.003500249236822128,-0.00181983970105648,-0.003477215766906738,XArbitraryZVertical,-0.008003394904793185,-0.008507938594337671,-0.005081153321215988,0.999918864188879,-0.01709583029150963,0.01591903157532215,-0.9997271299362183,0,0,0,-1,-1,,,,,,,,,,,,,,,,,,1,0.2
2021-11-29 12:48:46.428 -0500,,,,,,,,,,12747.12093566667,-0.0161285400390625,0.0117950439453125,-1.001327514648438,12747.11596766667,-0.01036072796864797,-0.01704859383234763,-0.01583474297877304,0.005631130654364824,0.01399618200957775,-0.004681672435253859,0.004396095871925354,-0.003764308989048004,-0.002940952777862549,XArbitraryZVertical,-0.007961051922955096,-0.00848279956826963,-0.00511250276291697,0.999919236937011,-0.0170456301420927,0.01583408191800117,-0.999729335308075,0,0,0,-1,-1,,,,,,,,,,,,,,,,,,1,0.2
2021-11-29 12:48:46.435 -0500,,,,,,,,,,12747.13087266667,-0.013519287109375,0.0118865966796875,-1.00335693359375,12747.12590466667,-0.01042025880502018,-0.01692752676371706,-0.01584267620913955,-0.006784792989492416,0.009252360090613365,-0.00837414525449276,0.0007960572838783264,-0.004046902060508728,-0.001596212387084961,XArbitraryZVertical,-0.007964958985794083,-0.008422012572640337,-0.005142713692804489,0.9999196177936305,-0.01692459359765053,0.0158420130610466,-0.9997312426567078,0,0,0,-1,-1,,,,,,,,,,,,,,,,,,1,0.2
2021-11-29 12:48:46.445 -0500,,,,,,,,,,12747.14080966667,-0.014862060546875,0.0129547119140625,-1.003738403320312,12747.13584166667,-0.01048979960200837,-0.01685328284133043,-0.01592688666733053,-0.008778168819844723,0.009298698976635933,-0.004994593560695648,0.003331061452627182,-0.004039548337459564,-0.003625750541687012,XArbitraryZVertical,-0.008007161324780313,-0.008384392906069545,-0.005177420371639993,0.999919430168477,-0.01685034856200218,0.01592621393501759,-0.999731183052063,0,0,0,-1,-1,,,,,,,,,,,,,,,,,,1,0.2
2021-11-29 12:48:46.456 -0500,,,,,,,,,,12747.15074666667,-0.0171051025390625,0.0142059326171875,-1.003585815429688,12747.14577866667,-0.01050704307635321,-0.01681116262035628,-0.01596221438100001,0.001600969117134809,0.004839003086090088,-0.001122224377468228,0.001946169883012772,-0.003006758168339729,-0.004007041454315186,XArbitraryZVertical,-0.008024786760945314,-0.008363171429829926,-0.005186060806694073,0.9999194282246736,-0.01680822856724262,0.0159615371376276,-0.9997313022613525,0,0,0,-1,-1,,,,,,,,,,,,,,,,,,1,0.2
2021-11-29 12:48:46.465 -0500,,,,,,,,,,12747.16068366667,-0.015045166015625,0.011688232421875,-1.0028076171875,12747.15571466667,-0.0105097795551194,-0.01669305527362309,-0.01594139799957694,-0.0002134428359568119,0.01480428501963615,-0.001897204201668501,-0.0004149433225393295,-0.001734722405672073,-0.003852188587188721,XArbitraryZVertical,-0.008014084384470491,-0.008304166788139531,-0.005187990049455883,0.999920010543803,-0.01669015921652317,0.01594072207808495,-0.9997336268424988,0,0,0,-1,-1,,,,,,,,,,,,,,,,,,1,0.2
2021-11-29 12:48:46.475 -0500,,,,,,,,,,12747.17062066667,-0.014801025390625,0.012603759765625,-1.003189086914062,12747.16565166667,-0.01051447217883792,-0.01656863335708368,-0.01593721764525173,-0.001388962380588055,0.009253758005797863,-0.001181213883683085,0.001520605757832527,-0.00424824096262455,-0.003071844577789307,XArbitraryZVertical,-0.00801169097230113,-0.008241953145399494,-0.005190852145721439,0.9999205266113923,-0.01656577177345753,0.01593654230237007,-0.9997357726097107,0,0,0,-1,-1,,,,,,,,,,,,,,,,,,1,0.2
2021-11-29 12:48:46.485 -0500,,,,,,,,,,12747.18055666667,-0.01715087890625,0.013885498046875,-1.004898071289062,12747.17558866667,-0.01051351489484735,-0.016434340147283,-0.01587829420306273,0.01845744624733925,0.01899693161249161,0.001348522957414389,0.001630503684282303,-0.003273798152804375,-0.003450155258178711,XArbitraryZVertical,-0.007981879230491205,-0.008174972601845989,-0.005191154868318741,0.999921299336011,-0.0164315290749073,0.0158776268362999,-0.9997389316558838,0,0,0,-1,-1,,,,,,,,,,,,,,,,,,1,0.2
2021-11-29 12:48:46.495 -0500,,,,,,,,,,12747.19049366667,-0.0149078369140625,0.0113677978515625,-1.001129150390625,12747.18552566667,-0.01054828327150628,-0.01618272348972087,-0.01562396970656095,0.01949954219162464,0.0312880203127861,-0.007535515818744898,-0.0009708348661661148,-0.001737766899168491,-0.005151033401489258,XArbitraryZVertical,-0.007854213979740799,-0.008049714403776513,-0.005210576181883397,0.9999231876037222,-0.01618004217743874,0.01562333386391401,-0.9997470378875732,0,0,0,-1,-1,,,,,,,,,,,,,,,,,,1,0.2
2021-11-29 12:48:46.505 -0500,,,,,,,,,,12747.20043066667,-0.01336669921875,0.0098114013671875,-1.0006103515625,12747.19546266667,-0.01060791334439809,-0.01581880964600274,-0.0155516065859659,-0.006844446994364262,0.0399283803999424,-0.005071026738733053,0.0009084008634090424,-0.004183113574981689,-0.001375138759613037,XArbitraryZVertical,-0.00781732158762043,-0.007867731375040644,-0.005242105712307366,0.9999247511918979,-0.01581623777747154,0.01555097941309214,-0.9997539520263672,0,0,0,-1,-1,,,,,,,,,,,,,,,,,,1,0.2
2021-11-29 12:48:46.515 -0500,,,,,,,,,,12747.21036766667,-0.011474609375,0.012115478515625,-1.004974365234375,12747.20539966667,-0.01062792588295552,-0.01542837326659153,-0.01571687228522357,-0.02518563903868198,0.0343182310461998,-0.002175371628254652,0.002059157006442547,-0.005904756486415863,-0.0008528232574462891,XArbitraryZVertical,-0.007899001572848743,-0.0076720054922434,-0.005252996411438964,0.9999255677024755,-0.01542585529386997,0.01571622490882874,-0.9997574687004089,0,0,0,-1,-1,,,,,,,,,,,,,,,,,,1,0.2
2021-11-29 12:48:46.525 -0500,,,,,,,,,,12747.22030466667,-0.0126190185546875,0.0132293701171875,-1.00030517578125,12747.21533566667,-0.01064912011456188,-0.01508089941672896,-0.01600015704576942,-0.03177136927843094,0.03456563875079155,-0.00196657981723547,0.00360378809273243,-0.003883926197886467,-0.005216062068939209,XArbitraryZVertical,-0.008039799508046154,-0.007497434520469371,-0.005263890663654421,0.9999257881241572,-0.01507839746773243,0.01599947363138199,-0.9997583031654358,0,0,0,-1,-1,,,,,,,,,,,,,,,,,,1,0.2
2021-11-29 12:48:46.535 -0500,,,,,,,,,,12747.23024166667,-0.0131072998046875,0.013031005859375,-1.000244140625,12747.22527266667,-0.01070828289167785,-0.01469653413422264,-0.01636679035122259,-0.04377423226833344,0.04272579774260521,-0.009219566360116005,0.002075019292533398,-0.003136621788144112,-0.0005470514297485352,XArbitraryZVertical,-0.008222306849465431,-0.007304035906025162,-0.005293659990856897,0.9999255760587444,-0.01469403691589832,0.01636605896055698,-0.9997580647468567,0,0,0,-1,-1,,,,,,,,,,,,,,,,,,1,0.2
2021-11-29 12:48:46.545 -0500,,,,,,,,,,12747.24017866667,-0.01300048828125,0.013671875,-1.005477905273438,12747.23520966667,-0.01080145097627029,-0.01429303209982881,-0.01682408424079518,-0.04911334067583084,0.03627775236964226,-0.01142226625233889,0.001183222979307175,-0.003792217001318932,-0.0004878044128417969,XArbitraryZVertical,-0.008450199394381838,-0.007100668507625834,-0.00534025522684558,0.9999248864970066,-0.01429052278399467,0.0168232899159193,-0.9997563362121582,0,0,0,-1,-1,,,,,,,,,,,,,,,,,,1,0.2
2021-11-29 12:48:46.555 -0500,,,,,,,,,,12747.25011466667,-0.011077880859375,0.0161590576171875,-1.0091552734375,12747.24514666667,-0.01088004295893702,-0.01405800816798537,-0.01722554788380163,-0.02331450022757053,0.01285515073686838,-0.00173701555468142,0.001054973341524601,-0.003552753478288651,-0.00572502613067627,XArbitraryZVertical,-0.008650562976222633,-0.006981729558659478,-0.005379121239942949,0.9999237751454021,-0.01405545976012945,0.01722469553351402,-0.9997528195381165,0,0,0,-1,-1,,,,,,,,,,,,,,,,,,1,0.2
2021-11-29 12:48:46.564 -0500,,,,,,,,,,12747.26005166667,-0.0129852294921875,0.0169525146484375,-1.006851196289062,12747.25508366667,-0.01088458247099721,-0.01402882119093627,-0.01713953855800443,0.02965097874403,-0.003952325321733952,-0.001228351844474673,0.002948420122265816,-0.0009795725345611572,-0.009400546550750732,XArbitraryZVertical,-0.008607499438678036,-0.006967354576023922,-0.005381821021499304,0.9999241731583228,-0.01402630098164082,0.01713869906961918,-0.9997547268867493,0,0,0,-1,-1,,,,,,,,,,,,,,,,,,1,0.2
2021-11-29 12:48:46.574 -0500,,,,,,,,,,12747.26998866667,-0.012725830078125,0.0126953125,-1.002944946289062,12747.26502066667,-0.01094773567136745,-0.01414675461300723,-0.01683269715895192,0.0265478640794754,-0.01860766857862473,-0.01225503720343113,0.001159048639237881,0.0001206807792186737,-0.007092893123626709,XArbitraryZVertical,-0.008454629560948243,-0.007026893889469309,-0.00541397986201703,0.9999248977815435,-0.01414427906274796,0.01683190278708935,-0.9997583031654358,0,0,0,-1,-1,,,,,,,,,,,,,,,,,,1,0.2
2021-11-29 12:48:46.584 -0500,,,,,,,,,,12747.27992566667,-0.013885498046875,0.0128631591796875,-0.9995269775390625,12747.27495666667,-0.01103086341997435,-0.01426176290667175,-0.01663315739457503,0.01825850829482079,-0.001906984485685825,-0.00620832946151495,0.001533477567136288,-0.003937011584639549,-0.003184914588928223,XArbitraryZVertical,-0.008355473184365437,-0.007084598611266178,-0.005455770525061136,0.9999250769422586,-0.01425930671393871,0.01663239113986492,-0.9997599720954895,0,0,0,-1,-1,,,,,,,,,,,,,,,,,,1,0.2
2021-11-29 12:48:46.594 -0500,,,,,,,,,,12747.28986266667,-0.0136871337890625,0.012359619140625,-0.99945068359375,12747.28489366667,-0.01103275451488933,-0.01410088282728453,-0.01642939223235245,0.01518681924790144,0.03538918867707253,-0.001386410091072321,0.0002130148932337761,-0.003565425053238869,0.0002386569976806641,XArbitraryZVertical,-0.008253165809483952,-0.007004724495165199,-0.005458110944159067,0.9999264908217378,-0.01409851294010878,0.01642865315079689,-0.9997656345367432,0,0,0,-1,-1,,,,,,,,,,,,,,,,,,1,0.2
2021-11-29 12:48:46.604 -0500,,,,,,,,,,12747.29979966667,-0.0108489990234375,0.0123138427734375,-1.002578735351562,12747.29483066667,-0.01105740765943725,-0.01368835637863401,-0.01635567934670394,0.001555428840219975,0.04512117803096771,-0.005157446023076773,-1.033768057823181e-06,-0.003995263949036598,0.0003219246864318848,XArbitraryZVertical,-0.008215269614477383,-0.006798580181790043,-0.00547239258568449,0.999928177273692,-0.01368609815835953,0.01635495014488697,-0.9997725486755371,0,0,0,-1,-1,,,,,,,,,,,,,,,,,,1,0.2
2021-11-29 12:48:46.614 -0500,,,,,,,,,,12747.30973566667,-0.013397216796875,0.0125274658203125,-1.001510620117188,12747.30476766667,-0.01109130149405907,-0.01321669127329319,-0.01633429504793589,0.00310698663815856,0.05151815712451935,-0.002886568661779165,0.002365545369684696,-0.004019657149910927,-0.002799451351165771,XArbitraryZVertical,-0.008203398445654582,-0.006562684895755096,-0.005491346596198875,0.9999297708353903,-0.01321454346179962,0.01633356884121895,-0.9997792840003967,0,0,0,-1,-1,,,,,,,,,,,,,,,,,,1,0.2
2021-11-29 12:48:46.624 -0500,,,,,,,,,,12747.31967266667,-0.010009765625,0.0122528076171875,-1.004852294921875,12747.31470466667,-0.01114196778276389,-0.01279454386776585,-0.01629466947617468,0.0012270612642169,0.0321149006485939,-0.006788632366806269,-0.0006047207862138748,-0.003766413778066635,-0.001725196838378906,XArbitraryZVertical,-0.008182588422266858,-0.006351529303356046,-0.005518536863275192,0.9999311865148708,-0.01279249601066113,0.01629394851624966,-0.9997854232788086,0,0,0,-1,-1,,,,,,,,,,,,,,,,,,1,0.2
2021-11-29 12:48:46.634 -0500,,,,,,,,,,12747.32960966667,-0.0054779052734375,0.012908935546875,-1.008575439453125,12747.32464166667,-0.0111456852314987,-0.0126378890125828,-0.01631975623116518,-0.002953569404780865,-0.009815740399062634,0.01461692340672016,0.002626104280352592,-0.004066154360771179,-0.005065321922302246,XArbitraryZVertical,-0.008194710169574826,-0.006273121394453817,-0.005520956442389469,0.9999315865218695,-0.01263586990535259,0.0163190308958292,-0.9997869729995728,0,0,0,-1,-1,,,,,,,,,,,,,,,,,,1,0.2
2021-11-29 12:48:46.644 -0500,,,,,,,,,,12747.33954666667,-0.0146026611328125,0.0126953125,-1.000961303710938,12747.33457866667,-0.01104500615763972,-0.01281843520241588,-0.01623921791008512,0.01294949743896723,-0.01017393544316292,0.003084104973822832,0.007338489405810833,-0.003329498693346977,-0.008789420127868652,XArbitraryZVertical,-0.00815462156111888,-0.006364025085297867,-0.005470140316466868,0.9999316504765218,-0.01281639374792576,0.01623850502073765,-0.9997860193252563,0,0,0,-1,-1,,,,,,,,,,,,,,,,,,1,0.2
2021-11-29 12:48:46.654 -0500,,,,,,,,,,12747.34948366667,-0.014617919921875,0.012115478515625,-1.0010986328125,12747.34451466667,-0.01101340448688067,-0.01273606884887545,-0.01618914909748932,0.000117055606096983,0.02656267397105694,0.000235188752412796,-0.001868605613708496,-0.003493059426546097,-0.001173436641693115,XArbitraryZVertical,-0.008129263874321082,-0.006323112859780432,-0.00545483704213879,0.999932176731945,-0.012734055519104,0.01618844270706177,-0.9997878670692444,0,0,0,-1,-1,,,,,,,,,,,,,,,,,,1,0.2
2021-11-29 12:48:46.664 -0500,,,,,,,,,,12747.35942066667,-0.018524169921875,0.010162353515625,-0.98614501953125,12747.35445166667,-0.01095663489694357,-0.01214053231858535,-0.01641249566690921,-0.06102565675973892,0.1220505833625793,0.008447844535112381,-0.002479320392012596,-0.004296211525797844,-0.001307010650634766,XArbitraryZVertical,-0.008239134524144062,-0.006024978364614157,-0.005428192013704377,0.9999332010176643,-0.01213859859853983,0.01641175895929337,-0.9997916221618652,0,0,0,-1,-1,,,,,,,,,,,,,,,,,,1,0.2
2021-11-29 12:48:46.674 -0500,,,,,,,,,,12747.36935766667,-0.0019989013671875,0.01531982421875,-1.012222290039062,12747.36438866667,-0.01089000171867409,-0.01077582505806157,-0.0171328873471695,-0.06643134355545044,0.1303915977478027,0.01058476511389017,-0.007750133983790874,-0.006969626992940903,0.01365017890930176,XArbitraryZVertical,-0.00859542318903982,-0.005340965958639546,-0.005398541230787771,0.9999342467059741,-0.01077403500676155,0.01713204942643642,-0.9997951984405518,0,0,0,-1,-1,,,,,,,,,,,,,,,,,,1,0.2
2021-11-29 12:48:46.684 -0500,,,,,,,,,,12747.37929366667,-0.001251220703125,0.020172119140625,-1.015869140625,12747.37432566667,-0.01078067119696452,-0.01005308506774913,-0.01758514117116182,-0.01972722262144089,0.01987441256642342,0.005992409773170948,0.008052460849285126,-0.002264341339468956,-0.01242744922637939,XArbitraryZVertical,-0.008819311774683355,-0.004978860487647157,-0.005345838109809512,0.9999344433055153,-0.01005136128515005,0.01758423447608948,-0.9997948408126831,0,0,0,-1,-1,,,,,,,,,,,,,,,,,,1,0.2
2021-11-29 12:48:46.694 -0500,,,,,,,,,,12747.38923066667,-0.011260986328125,0.0128173828125,-0.9982147216796875,12747.38426266667,-0.01075865695116891,-0.01002822542659464,-0.01759152028641337,0.001939723268151283,0.001456720754504204,0.00213721813634038,0.008775285445153713,0.002581575885415077,-0.01607412099838257,XArbitraryZVertical,-0.0088223801389528,-0.004966511331423494,-0.005334925265326411,0.9999345210420527,-0.01002650614827871,0.01759061217308044,-0.9997950196266174,0,0,0,-1,-1,,,,,,,,,,,,,,,,,,1,0.2
2021-11-29 12:48:46.704 -0500,,,,,,,,,,12747.39916766667,-0.0095062255859375,0.0132904052734375,-0.9997100830078125,12747.39419966667,-0.01076552073659063,-0.009795588670845715,-0.01767023543454569,-0.01505390740931034,0.0427522286772728,0.0003254697658121586,-0.001467082649469376,-0.004851864650845528,0.001581192016601562,XArbitraryZVertical,-0.008861131156056091,-0.004849956716000057,-0.00533918847524218,0.9999347290967108,-0.00979390274733305,0.01766931638121605,-0.9997959136962891,0,0,0,-1,-1,,,,,,,,,,,,,,,,,,1,0.2
2021-11-29 12:48:46.714 -0500,,,,,,,,,,12747.40910466667,-0.0072784423828125,0.0144805908203125,-1.002975463867188,12747.40413666667,-0.01076476498718025,-0.009373966694297135,-0.01783575864242449,-0.01534685492515564,0.04317760467529297,0.00022932980209589,-0.0001338869333267212,-0.004544340074062347,8.696317672729492e-05,XArbitraryZVertical,-0.008942760214932925,-0.004638714036177055,-0.005340286901627772,0.9999349596938973,-0.009372338652610779,0.01783481240272522,-0.9997970461845398,0,0,0,-1,-1,,,,,,,,,,,,,,,,,,1,0.2
2021-11-29 12:48:46.724 -0500,,,,,,,,,,12747.41904166667,-0.010406494140625,0.0161590576171875,-1.002593994140625,12747.41407266667,-0.01078487907843634,-0.00891270436377448,-0.01795356393525773,-0.01369782537221909,0.04677606746554375,-0.003409879747778177,0.001632708124816418,-0.003471938893198967,-0.003176331520080566,XArbitraryZVertical,-0.009000471077218112,-0.004407687642926115,-0.005352140072001375,0.9999354713184027,-0.008911149576306343,0.01795259863138199,-0.9997991323471069,0,0,0,-1,-1,,,,,,,,,,,,,,,,,,1,0.2
2021-11-29 12:48:46.734 -0500,,,,,,,,,,12747.42897866667,-0.00714111328125,0.0152740478515625,-1.004165649414062,12747.42400966667,-0.01079802427264109,-0.008482384700983388,-0.01805686779324572,-0.008062576875090599,0.04209399595856667,-0.0005186190828680992,-0.001925593242049217,-0.001896759495139122,-0.002792954444885254,XArbitraryZVertical,-0.009050995542515041,-0.004192201660270146,-0.005360427147420264,0.9999358891335964,-0.008480899967253208,0.01805588603019714,-0.999800980091095,0,0,0,-1,-1,,,,,,,,,,,,,,,,,,1,0.2
2021-11-29 12:48:46.744 -0500,,,,,,,,,,12747.43891466667,-0.007293701171875,0.014678955078125,-1.001358032226562,12747.43394666667,-0.01079141962217213,-0.008130812115643236,-0.01816144722728978,-0.02029101364314556,0.03659483417868614,-0.001616640482097864,0.0009882682934403419,-0.002886330708861351,-0.004363596439361572,XArbitraryZVertical,-0.009102326353921802,-0.004016172469923774,-0.005358500946406526,0.9999361412774929,-0.008129381574690342,0.01816044934093952,-0.9998020529747009,0,0,0,-1,-1,,,,,,,,,,,,,,,,,,1,0.2
2021-11-29 12:48:46.754 -0500,,,,,,,,,,12747.44885166667,-0.0082550048828125,0.017303466796875,-1.0025634765625,12747.44388366667,-0.01074215471261986,-0.007759184921264471,-0.01830831471800368,-0.007418358698487282,0.0465819239616394,0.01437364518642426,0.0004641059786081314,-0.003628266975283623,-0.001555740833282471,XArbitraryZVertical,-0.009174665479867703,-0.003830197961282532,-0.005335272959457015,0.9999363067373572,-0.007757806684821844,0.01830729283392429,-0.99980229139328,0,0,0,-1,-1,,,,,,,,,,,,,,,,,,1,0.2
2021-11-29 12:48:46.763 -0500,,,,,,,,,,12747.45878866667,-0.0022735595703125,0.0150909423828125,-1.0048828125,12747.45382066667,-0.01061629772187082,-0.007205456367548344,-0.01831069425617592,-0.002096829935908318,0.05153647065162659,0.002343879546970129,-0.001050817780196667,-0.00100613571703434,-0.002757072448730469,XArbitraryZVertical,-0.009174153145424106,-0.003553921709243214,-0.005274883469564833,0.9999377502209099,-0.007204186171293259,0.01830967143177986,-0.9998064041137695,0,0,0,-1,-1,,,,,,,,,,,,,,,,,,1,0.2
2021-11-29 12:48:46.773 -0500,,,,,,,,,,12747.46872566667,-0.0031280517578125,0.0151519775390625,-1.003997802734375,12747.46375766667,-0.01062096765760484,-0.006849640719700185,-0.01831023176061177,0.007668981328606606,0.02195883542299271,0.0003298637457191944,0.004574880003929138,-0.003218198195099831,-0.005073904991149902,XArbitraryZVertical,-0.009172991011843275,-0.003376004673480469,-0.005278851055915017,0.9999383776258477,-0.006848439108580351,0.01830920949578285,-0.9998089075088501,0,0,0,-1,-1,,,,,,,,,,,,,,,,,,1,0.2
2021-11-29 12:48:46.783 -0500,,,,,,,,,,12747.47866266667,-0.0029449462890625,0.01318359375,-1.001358032226562,12747.47369366667,-0.01062229971074842,-0.006607719503730586,-0.01819227335496813,0.01015397720038891,0.03007268533110619,0.001266497652977705,0.003478527069091797,-0.003039222210645676,-0.004185080528259277,XArbitraryZVertical,-0.009113379500830151,-0.003255360587975376,-0.005280824564983405,0.999939257662072,-0.006606577895581722,0.01819127053022385,-0.9998127222061157,0,0,0,-1,-1,,,,,,,,,,,,,,,,,,1,0.2
2021-11-29 12:48:46.793 -0500,,,,,,,,,,12747.48859966667,-0.0014190673828125,0.0147552490234375,-1.006118774414062,12747.48363066667,-0.01059408618654411,-0.006432943840723188,-0.01820224048454899,-0.009195752441883087,0.003312111832201481,0.002018574625253677,0.003486888483166695,-0.005017573013901711,-0.001544356346130371,XArbitraryZVertical,-0.009117856887406016,-0.003168080178870478,-0.005267498953445318,0.9999395314041174,-0.00643183384090662,0.01820123568177223,-0.9998136758804321,0,0,0,-1,-1,,,,,,,,,,,,,,,,,,1,0.2
2021-11-29 12:48:46.803 -0500,,,,,,,,,,12747.49853666667,-0.0107421875,0.0164031982421875,-0.9980316162109375,12747.49356766667,-0.01060252821637505,-0.006307617354072937,-0.01818157859756054,0.01123415492475033,0.038996871560812,-0.005088337231427431,0.004887466318905354,-0.003425257280468941,-0.006303966045379639,XArbitraryZVertical,-0.009107209621439171,-0.003105437306347807,-0.005272324159421454,0.9999397950633215,-0.006306533236056566,0.01818057708442211,-0.9998148083686829,0,0,0,-1,-1,,,,,,,,,,,,,,,,,,1,0.2
2021-11-29 12:48:46.813 -0500,,,,,,,,,,12747.50847266667,-0.0018768310546875,0.01361083984375,-1.003997802734375,12747.50350466667,-0.01064918294460206,-0.005686451526543795,-0.0181134396930731,0.002757846144959331,0.07622167468070984,-0.001520233927294612,-0.005056698806583881,-0.001709181815385818,0.001788198947906494,XArbitraryZVertical,-0.009071569250816572,-0.002794842743600717,-0.00529857681719649,0.9999409193914301,-0.005685488227754831,0.01811244897544384,-0.999819815158844,0,0,0,-1,-1,,,,,,,,,,,,,,,,,,1,0.2
2021-11-29 12:48:46.823 -0500,,,,,,,,,,12747.51840966667,0.005706787109375,0.013458251953125,-1.010940551757812,12747.51344166667,-0.01061811014545985,-0.005294725713593663,-0.01811667477579021,-0.007169352844357491,-0.0171895008534193,0.009667972102761269,0.003417002037167549,-0.004504773765802383,-0.004175901412963867,XArbitraryZVertical,-0.009072108538962427,-0.002599123710223614,-0.005284813759130055,0.9999414942804474,-0.005293832160532475,0.01811568439006805,-0.9998219013214111,0,0,0,-1,-1,,,,,,,,,,,,,,,,,,1,0.2
2021-11-29 12:48:46.833 -0500,,,,,,,,,,12747.52834666667,-0.00323486328125,0.015594482421875,-1.003753662109375,12747.52337866667,-0.01057776246656344,-0.005981350756036894,-0.01828868213137489,-0.02508789859712124,-0.100544773042202,-0.004588195588439703,0.01168710179626942,-0.004829341545701027,-0.01112568378448486,XArbitraryZVertical,-0.009159861448789603,-0.002942141850283386,-0.005261264873276187,0.9999398738412434,-0.005980314686894417,0.01828766241669655,-0.9998148679733276,0,0,0,-1,-1,,,,,,,,,,,,,,,,,,1,0.2
2021-11-29 12:48:46.844 -0500,,,,,,,,,,12747.53828366667,-0.0131988525390625,0.017669677734375,-0.9964752197265625,12747.53331566667,-0.01063227528344377,-0.00670072415185644,-0.01850099797359684,-0.0136237908154726,-0.03321979939937592,-0.003119195811450481,0.003464664798229933,-0.002905391156673431,-0.003947257995605469,XArbitraryZVertical,-0.009267994142254207,-0.003300989268883931,-0.005284863510674507,0.9999376791256518,-0.006699527148157358,0.01849994249641895,-0.9998064041137695,0,0,0,-1,-1,,,,,,,,,,,,,,,,,,1,0.2
2021-11-29 12:48:46.853 -0500,,,,,,,,,,12747.54822066667,-0.005645751953125,0.0147247314453125,-1.002059936523438,12747.54325166667,-0.01064396658318437,-0.006625001820137216,-0.01853297093497469,0.003877705428749323,0.03231287002563477,0.003762146458029747,-0.006575036328285933,-0.0008621625602245331,0.003331124782562256,XArbitraryZVertical,-0.009283798498691894,-0.00326299068793881,-0.005291005894302874,0.9999376353703828,-0.00662381574511528,0.01853190921247005,-0.9998063445091248,0,0,0,-1,-1,,,,,,,,,,,,,,,,,,1,0.2
2021-11-29 12:48:46.863 -0500,,,,,,,,,,12747.55815766667,-0.000152587890625,0.01641845703125,-1.006027221679688,12747.55318866667,-0.01060926971388682,-0.006381267202610636,-0.01853324184270247,-0.004170633852481842,0.01163156237453222,0.0002523660659790039,0.0007343767210841179,-0.003807380795478821,-0.002252042293548584,XArbitraryZVertical,-0.009283235204516904,-0.003141291497627366,-0.00527478979903623,0.9999380489149927,-0.006380128208547831,0.01853218115866184,-0.9998078942298889,0,0,0,-1,-1,,,,,,,,,,,,,,,,,,1,0.2
2021-11-29 12:48:46.873 -0500,,,,,,,,,,12747.56809466667,-0.0032806396484375,0.016265869140625,-1.00341796875,12747.56312566667,-0.01061452087349883,-0.006414914388067068,-0.01858510570712414,-0.001693361438810825,-0.01629804074764252,-0.001543536782264709,0.006261175498366356,-0.002165511250495911,-0.006220459938049316,XArbitraryZVertical,-0.009309262067133214,-0.00315795112407646,-0.005277174320919159,0.9999377935035586,-0.006413762457668781,0.01858403533697128,-0.9998067021369934,0,0,0,-1,-1,,,,,,,,,,,,,,,,,,1,0.2
2021-11-29 12:48:46.883 -0500,,,,,,,,,,12747.57803066667,-0.0054168701171875,0.0150909423828125,-1.000762939453125,12747.57306266667,-0.01064172661656799,-0.006503341723060082,-0.01858371950573212,0.001488050911575556,-0.004068805836141109,-0.00307432166300714,0.003221533726900816,-0.002316711470484734,-0.00361180305480957,XArbitraryZVertical,-0.009308845948566126,-0.003202039129452182,-0.005290367066337857,0.9999375803139672,-0.006502172909677029,0.01858264952898026,-0.9998061656951904,0,0,0,-1,-1,,,,,,,,,,,,,,,,,,1,0.2
2021-11-29 12:48:46.914 -0500,,,,,,,,,,12747.58796766667,-0.0055084228515625,0.0155181884765625,-1.002471923828125,12747.58299966667,-0.0106379794685322,-0.006477600125652224,-0.01859883663810408,-0.003035594709217548,0.008187028579413891,0.0003913831897079945,0.001059564761817455,-0.003506753593683243,-0.0009568929672241211,XArbitraryZVertical,-0.00931632967607568,-0.003189146047843133,-0.005288588402153222,0.9999375929838561,-0.006476434413343668,0.01859776489436626,-0.9998060464859009,0,0,0,-1,-1,,,,,,,,,,,,,,,,,,1,0.2
2021-11-29 12:48:46.916 -0500,,,,,,,,,,12747.59790466667,-0.0060882568359375,0.01629638671875,-1.004150390625,12747.59293666667,-0.01062202817132344,-0.006426094913926361,-0.01860403570776501,-0.0009671170264482498,0.002070280723273754,-0.0003234092146158218,0.0009165164083242416,-0.003084704279899597,-0.00266563892364502,XArbitraryZVertical,-0.009318767479550958,-0.003163455424895896,-0.005280844611030779,0.9999377077521038,-0.006424938794225454,0.01860296167433262,-0.99980628490448,0,0,0,-1,-1,,,,,,,,,,,,,,,,,,1,0.2
2021-11-29 12:48:46.918 -0500,,,,,,,,,,12747.60784166667,-0.0062713623046875,0.016326904296875,-1.001449584960938,12747.60287366667,-0.0106159036091613,-0.006414780534362716,-0.01861140401078416,-0.001900022849440575,0.0004026759415864944,6.274878978729248e-05,0.0003253696486353874,-0.002313874661922455,-0.004344165325164795,XArbitraryZVertical,-0.00932241165198891,-0.003157807394374221,-0.005277823128129007,0.9999377292752333,-0.006413625553250313,0.01861033029854298,-0.9998062252998352,0,0,0,-1,-1,,,,,,,,,,,,,,,,,,1,0.2
2021-11-29 12:48:46.922 -0500,,,,,,,,,,12747.61777866667,-0.00408935546875,0.0164031982421875,-1.002105712890625,12747.61280966667,-0.01062716192036504,-0.006389643352919903,-0.01862585561456087,-0.000975106842815876,0.005404092371463776,-0.0008736182935535908,0.0001171305775642395,-0.002297807484865189,-0.00164341926574707,XArbitraryZVertical,-0.009329588773072547,-0.003145148635150344,-0.005283545885375674,0.9999376289032851,-0.006388491485267878,0.01862477883696556,-0.9998061060905457,0,0,0,-1,-1,,,,,,,,,,,,,,,,,,1,0.2
2021-11-29 12:48:46.932 -0500,,,,,,,,,,12747.62771566667,-0.005035400390625,0.0161285400390625,-1.002151489257812,12747.62274666667,-0.0106111364676,-0.006346512477332788,-0.01862373173927485,-0.001757010817527771,0.00574224628508091,0.001851061824709177,0.002256014384329319,-0.002219388261437416,-0.002299249172210693,XArbitraryZVertical,-0.009328387971698406,-0.003123664977512162,-0.005275738300133618,0.9999377441260908,-0.006345369387418032,0.01862265542149544,-0.9998064637184143,0,0,0,-1,-1,,,,,,,,,,,,,,,,,,1,0.2
2021-11-29 12:48:46.942 -0500,,,,,,,,,,12747.63765166667,-0.00274658203125,0.0170440673828125,-1.003219604492188,12747.63268366667,-0.01060115976925947,-0.006314164003095949,-0.01862937911788348,-0.004249196499586105,0.003015702590346336,-0.001624629599973559,0.001277626492083073,-0.002499694004654884,-0.002344965934753418,XArbitraryZVertical,-0.009331110799738978,-0.003107523279858934,-0.005270892170085953,0.9999377786469524,-0.006313026417046785,0.01862830109894276,-0.9998065233230591,0,0,0,-1,-1,,,,,,,,,,,,,,,,,,1,0.2
2021-11-29 12:48:46.952 -0500,,,,,,,,,,12747.64758866667,-0.0028076171875,0.0160369873046875,-1.003982543945312,12747.64262066667,-0.01060616256289248,-0.006270965873716382,-0.01863827791773498,-0.0005681756883859634,0.004447084851562977,6.195018067955971e-05,0.003523254301398993,-0.001593062654137611,-0.003412961959838867,XArbitraryZVertical,-0.009335454086687874,-0.003085878589090069,-0.005273580947354277,0.9999377594935327,-0.006269835401326418,0.01863719895482063,-0.9998066425323486,0,0,0,-1,-1,,,,,,,,,,,,,,,,,,1,0.2
2021-11-29 12:48:46.962 -0500,,,,,,,,,,12747.65752566667,-0.002349853515625,0.01507568359375,-1.002151489257812,12747.65255766667,-0.01060536685157744,-0.006236116807890042,-0.0186423543133561,-0.001549816690385342,0.003000722266733646,-0.0001031658612191677,0.003427376504987478,-0.002604218199849129,-0.004175722599029541,XArbitraryZVertical,-0.009337399373448657,-0.003068448091921157,-0.005273339508688845,0.9999377612133222,-0.006234992761164904,0.01864127442240715,-0.999806821346283,0,0,0,-1,-1,,,,,,,,,,,,,,,,,,1,0.2
2021-11-29 12:48:46.972 -0500,,,,,,,,,,12747.66746266667,-0.0030364990234375,0.0157012939453125,-1.00396728515625,12747.66249466667,-0.01060748412863201,-0.006221971410939373,-0.01865788076726325,-0.002273131161928177,-0.0008408548310399055,-5.403067916631699e-05,0.003870995715260506,-0.00358104519546032,-0.002344906330108643,XArbitraryZVertical,-0.00934512816481407,-0.003061324584442637,-0.00527443964690366,0.9999376937701623,-0.006220848299562931,0.01865679770708084,-0.9998065829277039,0,0,0,-1,-1,,,,,,,,,,,,,,,,,,1,0.2
2021-11-29 12:48:46.982 -0500,,,,,,,,,,12747.67739966667,-0.0056610107421875,0.0157012939453125,-1.001800537109375,12747.67243066667,-0.01061904633672488,-0.006225262720194108,-0.01867743151507465,-0.001394821330904961,-0.000848044641315937,-0.001915846485644579,0.003187638241797686,-0.002974983304738998,-0.004161059856414795,XArbitraryZVertical,-0.009354928508550771,-0.003062863673390388,-0.005280173654592432,0.99993765292415,-0.006224136799573898,0.01867634616792202,-0.9998062252998352,0,0,0,-1,-1,,,,,,,,,,,,,,,,,,1,0.2
2021-11-29 12:48:46.993 -0500,,,,,,,,,,12747.68733666667,-0.0051116943359375,0.015411376953125,-1.002655029296875,12747.68236766667,-0.01062179303071218,-0.00621882093525138,-0.01868354609973367,0.00228034146130085,0.0004387618973851204,9.485986083745956e-06,0.0005566859617829323,-0.002981098368763924,-0.00199437141418457,XArbitraryZVertical,-0.009357973213828273,-0.003059613938741124,-0.00528156761750379,0.9999375833881187,-0.00621769530698657,0.0186824593693018,-0.9998061060905457,0,0,0,-1,-1,,,,,,,,,,,,,,,,,,1,0.2
2021-11-29 12:48:47.002 -0500,,,,,,,,,,12747.69727366667,-0.005218505859375,0.0160980224609375,-1.002609252929688,12747.69230466667,-0.01061138405043146,-0.006185293742770909,-0.01868572719367379,0.0002177231945097446,0.00211601983755827,0.0008979164995253086,0.00107248080894351,-0.003273194655776024,-0.00284874439239502,XArbitraryZVertical,-0.009358959621475123,-0.003042894369642395,-0.005276517067353667,0.9999376193652071,-0.006184174679219723,0.01868464052677155,-0.99980628490448,0,0,0,-1,-1,,,,,,,,,,,,,,,,,,1,0.2
2021-11-29 12:48:47.012 -0500,,,,,,,,,,12747.70720966667,-0.0051727294921875,0.0160369873046875,-1.004653930664062,12747.70224166667,-0.01060897779604591,-0.006172317478929199,-0.01868677817705587,-0.003351711668074131,0.002099640667438507,0.0003338586539030075,0.0009526954963803291,-0.00258759967982769,-0.002802908420562744,XArbitraryZVertical,-0.009359446194809549,-0.003036414787564253,-0.005275372535409983,0.9999377467304721,-0.006171200424432755,0.01868569105863571,-0.9998063445091248,0,0,0,-1,-1,,,,,,,,,,,,,,,,,,1,0.2
2021-11-29 12:48:47.022 -0500,,,,,,,,,,12747.71714666667,-0.0066375732421875,0.01519775390625,-1.003692626953125,12747.71217866667,-0.01059987586968177,-0.006140136023038823,-0.01869063577843088,-0.001236895564943552,0.003537481650710106,0.001463571563363075,0.0009662960655987263,-0.002652490511536598,-0.004847466945648193,XArbitraryZVertical,-0.009361276462738962,-0.003020357448242701,-0.005270966560535208,0.9999377781159591,-0.006139025092124939,0.01868954673409462,-0.9998064637184143,0,0,0,-1,-1,,,,,,,,,,,,,,,,,,1,0.2
2021-11-29 12:48:47.032 -0500,,,,,,,,,,12747.72708366667,-0.0024566650390625,0.015625,-1.00299072265625,12747.72211566667,-0.0106062953761171,-0.006081136430207251,-0.01870696007654333,-0.002558356150984764,0.005885225720703602,-0.0009893330279737711,-0.0005575371906161308,-0.00350804440677166,-0.003886103630065918,XArbitraryZVertical,-0.00936929239434128,-0.002990785985721721,-0.005274427152090685,0.999937753464461,-0.006080035120248795,0.01870586909353733,-0.9998065233230591,0,0,0,-1,-1,,,,,,,,,,,,,,,,,,1,0.2
2021-11-29 12:48:47.042 -0500,,,,,,,,,,12747.73702066667,-0.00347900390625,0.0164794921875,-1.004119873046875,12747.73205266667,-0.01060330895496659,-0.006032123195219498,-0.01872620851313012,-0.0009101256728172302,0.004836739040911198,0.001062099821865559,0.003574364818632603,-0.003100045025348663,-0.003184258937835693,XArbitraryZVertical,-0.009378782148246702,-0.00296624353882613,-0.005273134044300957,0.9999377626754581,-0.006031028926372528,0.01872511394321918,-0.9998064637184143,0,0,0,-1,-1,,,,,,,,,,,,,,,,,,1,0.2
2021-11-29 12:48:47.052 -0500,,,,,,,,,,12747.74695766667,-0.00115966796875,0.0171356201171875,-1.002517700195312,12747.74198866667,-0.01060307911252884,-0.005984731747600128,-0.01873510497070083,-0.0009676497429609299,0.003038439899682999,-0.003068462479859591,0.002504642587155104,-0.00225444883108139,-0.004313290119171143,XArbitraryZVertical,-0.00938310508669905,-0.002942526747567944,-0.005273227989888735,0.9999377620060838,-0.005983645562082529,0.01873400807380676,-0.9998065829277039,0,0,0,-1,-1,,,,,,,,,,,,,,,,,,1,0.2
2021-11-29 12:48:47.062 -0500,,,,,,,,,,12747.75689466667,-0.0032806396484375,0.01702880859375,-1.002090454101562,12747.75192566667,-0.01060746961717894,-0.005973530134310191,-0.01874892022561727,-0.001985509879887104,-0.001199714839458466,-0.001616773428395391,0.004812777508050203,-0.001612132415175438,-0.002711296081542969,XArbitraryZVertical,-0.009389989342784552,-0.002936868908469407,-0.005275454766981543,0.9999376865374445,-0.005972444545477629,0.01874782145023346,-0.9998064041137695,0,0,0,-1,-1,,,,,,,,,,,,,,,,,,1,0.2
2021-11-29 12:48:47.072 -0500,,,,,,,,,,12747.76683166667,-0.005096435546875,0.0146636962890625,-0.99951171875,12747.76186266667,-0.01061304744029556,-0.005977725015863472,-0.01876815649975304,-0.002198030240833759,0.0003024730831384659,0.0001463722437620163,0.002695997711271048,-0.001738177612423897,-0.002284407615661621,XArbitraryZVertical,-0.009399626400521881,-0.002938888803774169,-0.005278194730614177,0.9999375478069202,-0.005976636428385973,0.01876705512404442,-0.9998060464859009,0,0,0,-1,-1,,,,,,,,,,,,,,,,,,1,0.2
2021-11-29 12:48:47.081 -0500,,,,,,,,,,12747.77676766667,-0.0059356689453125,0.01605224609375,-1.0035400390625,12747.77179966667,-0.01062445518483599,-0.005976982778266367,-0.01877564042193968,-0.0009735086932778358,0.003063905984163284,-0.001107177464291453,0.0008794586174190044,-0.004110770300030708,0.0002941489219665527,XArbitraryZVertical,-0.00940338214448809,-0.002938443875814436,-0.005283889931984032,0.9999375668437045,-0.005975893698632717,0.01877453736960888,-0.9998058676719666,0,0,0,-1,-1,,,,,,,,,,,,,,,,,,1,0.2
2021-11-29 12:48:47.091 -0500,,,,,,,,,,12747.786705875,-0.0080718994140625,0.016845703125,-1.002975463867188,12747.78173666667,-0.0106213023524195,-0.00596389902037577,-0.01876848871625865,0.0004598046652972698,0.001878499053418636,-0.001546199666336179,2.714525908231735e-05,-0.00271507166326046,-0.003733932971954346,XArbitraryZVertical,-0.00939976780212576,-0.002931936461265625,-0.005282386233611638,0.9999375775552816,-0.005962813273072243,0.01876738667488098,-0.9998061060905457,0,0,0,-1,-1,,,,,,,,,,,,,,,,,,1,0.2
2021-11-29 12:48:47.101 -0500,,,,,,,,,,12747.796642875,-0.0057220458984375,0.0157470703125,-1.002914428710938,12747.791674875,-0.01062065846573855,-0.005949756467956162,-0.01877733983344662,-0.00253545306622982,0.002425513230264187,0.001089797355234623,-0.002123225945979357,-0.001930465921759605,-0.003169417381286621,XArbitraryZVertical,-0.009404155152497368,-0.002924845138305728,-0.005282117595169117,0.9999375198625908,-0.005948672536760569,0.01877623610198498,-0.9998059868812561,0,0,0,-1,-1,,,,,,,,,,,,,,,,,,1,0.2
2021-11-29 12:48:47.111 -0500,,,,,,,,,,12747.806579875,-0.004730224609375,0.0168304443359375,-1.002029418945312,12747.801611875,-0.01060963121842744,-0.005906096425076164,-0.01877823306691325,3.582937642931938e-05,0.005636552348732948,0.004240316338837147,0.0001829755492508411,-0.003029989078640938,-0.00310814380645752,XArbitraryZVertical,-0.009404470340090936,-0.002903065922635529,-0.005276808219419023,0.9999376172895779,-0.005905020982027054,0.01877713017165661,-0.99980628490448,0,0,0,-1,-1,,,,,,,,,,,,,,,,,,1,0.2
2021-11-29 12:48:47.121 -0500,,,,,,,,,,12747.816516875,-0.0027618408203125,0.01800537109375,-1.002975463867188,12747.811547875,-0.01059348756744149,-0.005853927565048529,-0.01878257994537992,-0.002703231759369373,0.003524931147694588,0.0008367965929210186,0.001122637651860714,-0.001950960606336594,-0.002222955226898193,XArbitraryZVertical,-0.009406482044142321,-0.00287704724138235,-0.005268975331772232,0.9999377922986693,-0.005852861795574427,0.01878147572278976,-0.9998064637184143,0,0,0,-1,-1,,,,,,,,,,,,,,,,,,1,0.2
2021-11-29 12:48:47.131 -0500,,,,,,,,,,12747.826453875,-0.0027313232421875,0.014984130859375,-1.003952026367188,12747.821484875,-0.01058372007573028,-0.005819809906938937,-0.01879517312932172,-0.002055550925433636,0.0009389361366629601,-0.0006250124424695969,0.003056909423321486,-0.0007886271923780441,-0.003169000148773193,XArbitraryZVertical,-0.009412674219074412,-0.002860001872157244,-0.005264233623649289,0.9999378260755721,-0.005818749312311411,0.01879406720399857,-0.9998064637184143,0,0,0,-1,-1,,,,,,,,,,,,,,,,,,1,0.2
2021-11-29 12:48:47.141 -0500,,,,,,,,,,12747.836390875,-0.00152587890625,0.0171356201171875,-1.0042724609375,12747.831421875,-0.01058827753446745,-0.00579136072243002,-0.01880657227826755,0.000406807754188776,-0.000662422738969326,0.002134022768586874,0.003058981616050005,-0.003821264952421188,-0.004145622253417969,XArbitraryZVertical,-0.009418304964844198,-0.002845726367917566,-0.005266629274315135,0.9999378090101735,-0.005790304392576218,0.01880546286702156,-0.9998064041137695,0,0,0,-1,-1,,,,,,,,,,,,,,,,,,1,0.2
2021-11-29 12:48:47.151 -0500,,,,,,,,,,12747.846326875,-0.002655029296875,0.015625,-1.002273559570312,12747.841358875,-0.0105661913895588,-0.005788249378817812,-0.01880310090853432,-3.634253516793251e-05,0.0008513852953910828,0.002842955756932497,0.004261315800249577,-0.001666303724050522,-0.004465997219085693,XArbitraryZVertical,-0.009416529789289762,-0.002844284017201957,-0.00525560665259862,0.9999378875288705,-0.005787193775177002,0.01880199275910854,-0.9998064637184143,0,0,0,-1,-1,,,,,,,,,,,,,,,,,,1,0.2
2021-11-29 12:48:47.161 -0500,,,,,,,,,,12747.856263875,-0.0043182373046875,0.0161590576171875,-1.000442504882812,12747.851295875,-0.01055560834506682,-0.005782890878993281,-0.01881837107264042,-0.00145101360976696,-0.001072749495506287,-0.0016825539059937,0.003126806113868952,-0.003192190080881119,-0.002467334270477295,XArbitraryZVertical,-0.009424135703943048,-0.002841614383947069,-0.005250318470046608,0.9999378059861775,-0.005781834945082664,0.01881726086139679,-0.9998062252998352,0,0,0,-1,-1,,,,,,,,,,,,,,,,,,1,0.2
2021-11-29 12:48:47.171 -0500,,,,,,,,,,12747.866200875,-0.004241943359375,0.01495361328125,-1.0028076171875,12747.861232875,-0.01056671087956642,-0.005791006207793084,-0.01882503619306369,-0.001522919163107872,0.001975672319531441,0.0007977811619639397,0.001471710857003927,-0.002664797008037567,-0.0006364583969116211,XArbitraryZVertical,-0.00942750484608364,-0.002845601692551631,-0.005255821166276058,0.999937766788112,-0.00578994769603014,0.01882392354309559,-0.9998060464859009,0,0,0,-1,-1,,,,,,,,,,,,,,,,,,1,0.2
2021-11-29 12:48:47.181 -0500,,,,,,,,,,12747.876137875,-0.007049560546875,0.015960693359375,-1.003448486328125,12747.871169875,-0.01056868366643895,-0.005771539643466074,-0.01882334487601201,0.001232653856277466,-0.0006336933001875877,-0.0009553777053952217,0.001528542954474688,-0.003868551924824715,-0.003001391887664795,XArbitraryZVertical,-0.009426611241348425,-0.002835864313889735,-0.005256901939061543,0.9999377590893505,-0.005770485382527113,0.01882223412394524,-0.9998061656951904,0,0,0,-1,-1,,,,,,,,,,,,,,,,,,1,0.2
2021-11-29 12:48:47.191 -0500,,,,,,,,,,12747.886074875,-0.0060882568359375,0.0145263671875,-1.00274658203125,12747.881105875,-0.01057102272453792,-0.005763311936813344,-0.01881292001780147,0.0004994855262339115,0.0003047045320272446,-0.0002441806718707085,-0.001287299674004316,-0.002851046621799469,-0.003642022609710693,XArbitraryZVertical,-0.009421381421139099,-0.002831767555019198,-0.005258125782462553,0.9999377503715897,-0.005762259941548109,0.01881181076169014,-0.9998064637184143,0,0,0,-1,-1,,,,,,,,,,,,,,,,,,1,0.2
2021-11-29 12:48:47.201 -0500,,,,,,,,,,12747.896011875,-0.006072998046875,0.0172882080078125,-1.002578735351562,12747.891042875,-0.01056881257729468,-0.005738424974708331,-0.01881580635189199,-0.001494956202805042,0.00352872721850872,0.0006011067889630795,-0.0003508785739541054,-0.004288259893655777,-0.002940058708190918,XArbitraryZVertical,-0.009422755017876662,-0.002819327325060527,-0.005257133285277802,0.9999378766538153,-0.005737377796322107,0.0188146959990263,-0.9998065233230591,0,0,0,-1,-1,,,,,,,,,,,,,,,,,,1,0.2
2021-11-29 12:48:47.211 -0500,,,,,,,,,,12747.905948875,-0.0023345947265625,0.0156097412109375,-1.001358032226562,12747.900979875,-0.01057221693049372,-0.005690031907112354,-0.01883746365519419,-0.002526930533349514,0.002183197997510433,-0.0002235407009720802,-0.0003840052522718906,-0.001548072323203087,-0.002772331237792969,XArbitraryZVertical,-0.009433460266107497,-0.002795058650553925,-0.005259031855455355,0.999937863129145,-0.005688991863280535,0.01883634924888611,-0.9998064041137695,0,0,0,-1,-1,,,,,,,,,,,,,,,,,,1,0.2
2021-11-29 12:48:47.221 -0500,,,,,,,,,,12747.915884875,-0.0010833740234375,0.016326904296875,-1.003738403320312,12747.910916875,-0.01057533158951294,-0.005654788483755259,-0.01884169699111527,-0.0003929398953914642,0.006397650577127934,-0.0005814693868160248,0.003319160547107458,-0.003230772912502289,-0.001551508903503418,XArbitraryZVertical,-0.009435488766957769,-0.002777412186869188,-0.005260749404177578,0.9999378508942642,-0.005653754808008671,0.01884058304131031,-0.9998065233230591,0,0,0,-1,-1,,,,,,,,,,,,,,,,,,1,0.2
2021-11-29 12:48:47.230 -0500,,,,,,,,,,12747.925821875,-0.00164794921875,0.0164642333984375,-1.004196166992188,12747.920853875,-0.01057469599735834,-0.005595455251810546,-0.0188445505903608,0.001758628059178591,0.0005788104608654976,-1.807790249586105e-05,0.004511059261858463,-0.002516461536288261,-0.003931581974029541,XArbitraryZVertical,-0.009436759193203081,-0.002747743019534906,-0.005260707845970771,0.9999378511902394,-0.005594432353973389,0.01884343475103378,-0.999806821346283,0,0,0,-1,-1,,,,,,,,,,,,,,,,,,1,0.2
2021-11-29 12:48:47.240 -0500,,,,,,,,,,12747.935758875,-0.0025177001953125,0.0160675048828125,-1.001693725585938,12747.930790875,-0.01056847689768678,-0.005586706195131232,-0.0188386529631507,-0.001643826253712177,-0.0008345292881131172,0.002460792660713196,0.003937737084925175,-0.002373237162828445,-0.00438922643661499,XArbitraryZVertical,-0.00943377878018989,-0.00274341369907457,-0.005257648022287539,0.9999379325928708,-0.005585685838013887,0.01883753947913647,-0.9998069405555725,0,0,0,-1,-1,,,,,,,,,,,,,,,,,,1,0.2
2021-11-29 12:48:47.250 -0500,,,,,,,,,,12747.945695875,-0.0039520263671875,0.0145721435546875,-1.00421142578125,12747.940726875,-0.01056652816053451,-0.005596422827858511,-0.01885639642497775,3.156810998916626e-05,-0.001576619222760201,-0.0012284847907722,0.003077699337154627,-0.002787705510854721,-0.001887142658233643,XArbitraryZVertical,-0.009442673012772752,-0.002748233855719851,-0.005256602721167685,0.9999378208263607,-0.005595398601144552,0.01885527931153774,-0.9998065829277039,0,0,0,-1,-1,,,,,,,,,,,,,,,,,,1,0.2
2021-11-29 12:48:47.260 -0500,,,,,,,,,,12747.955632875,-0.006256103515625,0.0164031982421875,-1.002044677734375,12747.950663875,-0.0105750369870028,-0.005606593141865191,-0.01885816314965184,-0.001295485068112612,-0.0007654204964637756,-0.0008228854276239872,0.001653541345149279,-0.004284832626581192,-0.004404962062835693,XArbitraryZVertical,-0.009443594624548015,-0.002753273790368343,-0.005260806255302187,0.9999377908828414,-0.005605566781014204,0.01885704509913921,-0.9998064637184143,0,0,0,-1,-1,,,,,,,,,,,,,,,,,,1,0.2
2021-11-29 12:48:47.270 -0500,,,,,,,,,,12747.965569875,-0.0073699951171875,0.0163421630859375,-1.003311157226562,12747.960600875,-0.01057711255624248,-0.005607854738245105,-0.01886361795072867,-0.001348748337477446,-0.0004864875227212906,0.001949598547071218,-0.000649274792522192,-0.00245923176407814,-0.002238333225250244,XArbitraryZVertical,-0.009446327788589967,-0.002753880185622695,-0.005261830102082797,0.9999377835894698,-0.005606827791780233,0.01886249892413616,-0.9998063445091248,0,0,0,-1,-1,,,,,,,,,,,,,,,,,,1,0.2
2021-11-29 12:48:47.280 -0500,,,,,,,,,,12747.975505875,-0.005340576171875,0.0152130126953125,-1.001312255859375,12747.970537875,-0.01058217581361861,-0.005610677869348292,-0.01887506909656265,-0.001574317924678326,0.00162646546959877,-0.0007910602726042271,-0.001760344952344894,-0.002531718462705612,-0.00350499153137207,XArbitraryZVertical,-0.00945206803046799,-0.002755237479141049,-0.005264332235267176,0.9999376465532414,-0.005609649233520031,0.01887394860386848,-0.9998061060905457,0,0,0,-1,-1,,,,,,,,,,,,,,,,,,1,0.2
2021-11-29 12:48:47.290 -0500,,,,,,,,,,12747.985442875,-0.0043792724609375,0.0156402587890625,-1.002426147460938,12747.980474875,-0.01057428672248965,-0.005590217491126948,-0.01886848351056348,0.0005442267283797264,0.003142302855849266,-0.002528906101360917,0.0002486184239387512,-0.003654284402728081,-0.001505851745605469,XArbitraryZVertical,-0.009448710693136698,-0.002745062687854136,-0.005260493962258051,0.9999377335010947,-0.005589193198829889,0.01886736415326595,-0.9998063445091248,0,0,0,-1,-1,,,,,,,,,,,,,,,,,,1,0.2
2021-11-29 12:48:47.300 -0500,,,,,,,,,,12747.995379875,-0.00140380859375,0.0164337158203125,-1.003280639648438,12747.990411875,-0.01057911436751127,-0.005559212624020262,-0.01887561892733323,8.323369547724724e-05,0.002902884036302567,-0.0007408596575260162,0.001178921665996313,-0.003234170377254486,-0.002619743347167969,XArbitraryZVertical,-0.009452203351097756,-0.002729519484667119,-0.005263044092185287,0.9999377153353493,-0.005558193661272526,0.01887449808418751,-0.9998064041137695,0,0,0,-1,-1,,,,,,,,,,,,,,,,,,1,0.2
2021-11-29 12:48:47.310 -0500,,,,,,,,,,12748.005316875,-0.001678466796875,0.016632080078125,-1.004379272460938,12748.000348875,-0.01057329234200323,-0.005506592868988578,-0.01887824309664636,-0.0005817576311528683,0.002196846529841423,0.003189300186932087,0.004101776052266359,-0.002443337813019753,-0.003473997116088867,XArbitraryZVertical,-0.009453368406633939,-0.002703231621803641,-0.005260377934813579,0.9999378535397389,-0.005505583714693785,0.01887712255120277,-0.9998066425323486,0,0,0,-1,-1,,,,,,,,,,,,,,,,,,1,0.2
2021-11-29 12:48:47.320 -0500,,,,,,,,,,12748.015253875,-0.0024261474609375,0.0162506103515625,-1.00152587890625,12748.010284875,-0.01057103188196538,-0.005469923779741153,-0.0188795400166028,-0.0001484616659581661,0.002367822453379631,-0.002025169553235173,0.003790455404669046,-0.002246269956231117,-0.004572451114654541,XArbitraryZVertical,-0.009453917745404336,-0.00268490556715044,-0.005259419512386406,0.9999378603669437,-0.005468921735882759,0.01887841895222664,-0.999806821346283,0,0,0,-1,-1,,,,,,,,,,,,,,,,,,1,0.2
