acc_t,acc_x,acc_y,acc_z,gyr_t,yaw,roll,pitch,gyr_x,gyr_y,gyr_z,acc_x_2,acc_y_2,acc_z_2,quat_x,quat_y,quat_z,quat_w
16431.93000479167,-0.01153564453125,-0.0314178466796875,-0.98126220703125,16431.92503579167,0.0042866838640761,0.0021288435457335,0.0326928769765862,0.390522301197052,0.1159304305911064,0.0992217510938644,-0.0195837654173374,0.0343044623732566,-0.0099970698356628,0.0163433823470557,0.0010993113023295,0.0021604513792274,0.9998635151988234
16431.939943625,0.0124664306640625,-0.02056884765625,-1.005279541015625,16431.934974625,0.0051389002583251,0.0033723010368915,0.0361531300721973,0.2598553597927094,0.1174183338880539,0.0434719324111938,-0.0360544249415397,-0.0114164128899574,0.0268067121505737,0.0180711625870724,0.0017323127736493,0.0025995017670546,0.999831871955177
16431.949882625,0.0167999267578125,-0.0475006103515625,-1.006256103515625,16431.944912625,0.0052360229177139,0.0039998686768101,0.037600204556965,0.0865254029631614,0.0151881035417318,-0.0069741941988468,-0.0004569990560412,0.0244229882955551,-0.0006690025329589,0.0187936575983071,0.0020487885259375,0.0026551371452932,0.9998177749686684
16431.959820625,-0.000946044921875,-0.04522705078125,-0.980865478515625,16431.954851625,0.0053514479696185,0.0040985394005454,0.038471293866933,0.0812877640128135,0.005820432677865,0.0357985720038414,0.016152910888195,0.0016575865447521,-0.0070806741714477,0.0192288698543847,0.0021003478284364,0.0027146366880776,0.999809184122956
16431.969759625,-0.0105133056640625,-0.040618896484375,-0.973052978515625,16431.964790625,0.0055929914352348,0.0039451693982572,0.0388698493950178,0.0061538671143352,-0.0367821529507637,-0.0044883997179567,0.0039771250449121,-0.0086253136396408,0.0015409588813781,0.0194280720571091,0.0020265492548815,0.002834292939532,0.9998051917169232
16431.979698625,-0.0013580322265625,-0.040802001953125,-0.983367919921875,16431.974728625,0.0052389683717266,0.0035906368485471,0.0387868451506642,-0.0080178789794445,-0.0277391579002142,-0.0526853576302528,-0.0122091518715024,-0.0030777603387832,0.0269056558609008,0.0193874069263736,0.0018457711064098,0.0026537993895173,0.9998068369027168
16431.989636625,0.0009002685546875,-0.05120849609375,-0.9840545654296876,16431.984667625,0.0049485610504155,0.0036745794111312,0.0388094526448171,0.022318722680211,0.0433669760823249,0.0052612996660172,-0.0105535257607698,-0.0003696233034133,0.0206483602523803,0.0193988709955525,0.0018849467118463,0.0025094576992146,0.9998069141160584
16431.999575625,0.00054931640625,-0.0445098876953125,-0.994232177734375,16431.994606625,0.0052139018417411,0.0043157444937501,0.0389853498699862,0.0241115633398294,0.0728487968444824,0.0365644954144954,-0.003564778715372,-0.0082962773740291,0.0153441429138183,0.0194857050525729,0.0022082664111455,0.0026485065770205,0.99980416249509
16432.009514625,0.0067291259765625,-0.0352783203125,-1.007919311523438,16432.004544625,0.0055594130010296,0.0049416841565169,0.03908894846499,0.0108804460614919,0.065264917910099,0.029278352856636,-0.0046327207237482,-0.0116412453353405,0.0122549533843994,0.0195362270645203,0.0025246822135488,0.0028274514206581,0.9998020079337824
16432.019452625,-0.00213623046875,-0.035675048828125,-1.006668090820312,16432.014483625,0.0057664222851168,0.0054629997017147,0.0391942769634858,0.0055200345814228,0.0479004085063934,0.0121828559786081,-0.001613569445908,-0.000183455646038,-0.0025376677513122,0.0195878558136041,0.0027874594179255,0.0029361686622916,0.9997999326757626
16432.029391625,-0.0079345703125,-0.0270843505859375,-1.002883911132812,16432.024422625,0.0059455310193609,0.0057825964910238,0.039131896826141,-0.0089585073292255,0.0245215836912393,0.0268368981778621,-0.0013073193840682,0.0039808936417102,-0.0101969242095947,0.0195559391775089,0.0029488890986137,0.0030287468900008,0.9997997848967104
16432.039330625,0.0018463134765625,-0.02215576171875,-1.012466430664062,16432.034360625,0.006248434687337,0.0061478969366296,0.0390827237446705,0.0088242189958691,0.0527202636003494,0.03957399725914,-0.0118346996605396,0.0061748027801513,-0.0043835639953613,0.0195303300519652,0.0031343891449896,0.0031836661661752,0.999799213795149
16432.049268625,0.0009918212890625,-0.029998779296875,-1.00970458984375,16432.044299625,0.0067569231680548,0.0067508875499971,0.0393229839527281,0.028760377317667,0.0635880902409553,0.0628769248723983,-0.0107739455997943,0.0151734240353107,-0.0085930824279785,0.0196485999181239,0.0034411865904118,0.0034441444854155,0.9997950704675488
16432.059207625,0.00531005859375,-0.0264434814453125,-1.006942749023438,16432.054238625,0.007239631909418,0.0071884839501456,0.039474444571004,0.0012834779918193,0.0379075929522514,0.0262061301618814,-0.0034444257616996,0.014165099710226,-0.0140189528465271,0.0197226755692831,0.0036649503762598,0.0036900146475089,0.9997919924130848
16432.069145625,0.0169830322265625,-0.04083251953125,-1.013015747070312,16432.064176625,0.0072513061837366,0.0074830311184019,0.0394776773011922,0.0024944175966084,0.0297039952129125,-0.0136528695002198,-0.0075534326024353,0.0107503570616245,-0.0063002705574035,0.0197237254488478,0.0038123140893822,0.0036987610394906,0.9997914005565246
16432.079084625,0.0095062255859375,-0.0479583740234375,-1.003646850585938,16432.074115625,0.0073015439310806,0.0077848806536948,0.0395382868361738,0.0031926983501762,0.0401171222329139,0.0318694747984409,0.0065035009756684,0.0089493505656719,-0.0117371082305908,0.0197533666118033,0.003963811179008,0.0037269673090557,0.9997900835058476
16432.089023625,-0.000213623046875,-0.0338134765625,-1.002960205078125,16432.084054625,0.0078207037364805,0.0083242764561324,0.0396723066895613,0.0180283691734075,0.075657807290554,0.0627935677766799,0.0063918335363268,-0.0078234709799289,-0.0105565190315246,0.0198182559672008,0.0042388357443811,0.0039920930782569,0.9997866933039112
16432.098962625,0.0007781982421875,-0.0306396484375,-1.005340576171875,16432.093992625,0.008258902336681,0.0090737006100248,0.039846872835299,0.0148823782801628,0.0753047615289688,0.021414304152131,-0.0053890133276581,-0.0018049292266368,-0.0028337836265563,0.0199030119216348,0.0046181618319995,0.0042189598280224,0.9997823826186696
16432.108900625,0.010009765625,-0.04718017578125,-1.00048828125,16432.103931625,0.0082268285139239,0.0097148013010205,0.0399023860797563,-0.0034159361384809,0.0550399757921695,-0.0208346154540777,-0.010088394396007,0.0102439522743225,-0.0056648850440979,0.019929490035644,0.0049384349106863,0.0042094390448102,0.9997802754614442
16432.118839625,0.0098876953125,-0.0569610595703125,-1.001190185546875,16432.113869625,0.0082029084816239,0.0101070940567185,0.0397209719510787,-0.0346319116652011,0.0254004243761301,0.0238642804324626,-0.0058722738176584,0.0013956874608993,-0.0036016106605529,0.0198380376760308,0.005133936806064,0.0042009396809401,0.9997811705822708
16432.128777625,-0.00042724609375,-0.03448486328125,-1.002166748046875,16432.123808625,0.0085635222916142,0.0100270397824947,0.0391206747782385,-0.0649003386497497,-0.0292756035923957,0.0269247852265834,0.002477740868926,-0.015531051903963,-0.0023412108421325,0.0195372034307689,0.0050962401503742,0.0043789339568187,0.9997865079486512
16432.138716625,0.007476806640625,-0.0189056396484375,-1.007080078125,16432.133747625,0.0085205950023558,0.0096437729140587,0.0385555319827172,-0.04834745824337,-0.0378716513514518,-0.0266488287597894,-0.0052419332787394,-0.0088478401303291,-0.0026206374168396,0.0192556352057335,0.0049030510531311,0.0043523919584048,0.9997930465978032
16432.148655625,0.020782470703125,-0.0327606201171875,-1.01568603515625,16432.143685625,0.0083294363825223,0.0094399391367825,0.0381711766658026,-0.0194702688604593,-0.0014004614204168,-0.010077042505145,-0.0097075887024402,0.0147701613605022,-0.0053048133850097,0.0190643985188366,0.0047985318043629,0.0042539782201167,0.9997976627323196
16432.158593625,0.0293731689453125,-0.04107666015625,-1.0147705078125,16432.153624625,0.0083969732501543,0.0095338749572013,0.0381266567148674,0.0077206050045788,0.0177929382771253,0.0210033785551786,0.0062660370022058,0.015213955193758,-0.0118499994277954,0.01904177931802,0.0048460424902775,0.0042885308542463,0.9997977305640864
16432.168532625,0.0269775390625,-0.0419921875,-1.007827758789062,16432.163563625,0.0085931597104854,0.0097349561259652,0.0382883583013766,0.0206105709075927,0.027138503268361,0.0163487046957016,0.0164869241416454,-0.0013328343629837,-0.0174580812454223,0.0191216964323147,0.00494877013626,0.0043889052927759,0.9997953017310488
16432.178471625,0.029022216796875,-0.05303955078125,-1.0008544921875,16432.173501625,0.008740082674298,0.0100551726160638,0.0385607390388301,0.0278511736541986,0.0379930138587951,0.0100665744394063,0.0181354470551013,-0.0009691007435321,-0.0121616721153259,0.01925678038987,0.005110832061387,0.004466086285185,0.9997915525156514
16432.188409625,0.0237274169921875,-0.0538330078125,-0.9948577880859376,16432.183440625,0.0087929062901578,0.0103302231739085,0.0387210344893941,0.0063554686494171,0.0233600120991468,-0.0032814550213515,0.018791465088725,-0.0068819262087345,-0.005487322807312,0.019336158012875,0.0052491814122268,0.0044955478196842,0.999789188634126
16432.198348625,0.02471923828125,-0.0537872314453125,-0.9987640380859376,16432.193379625,0.0087266900100149,0.0105780996830779,0.0387321472195055,-0.0014084451831877,0.0266346354037523,-0.00488654198125,0.0154004823416471,-0.0181928426027298,0.0016965270042419,0.0193413354012766,0.0053724774592847,0.0044648724428178,0.9997884865908916
16432.208287625,0.013702392578125,-0.05218505859375,-1.00054931640625,16432.203317625,0.0087551340186361,0.0107648416167056,0.0387152153669387,-0.0090695600956678,0.0091235507279634,0.0076154009439051,0.0138558521866798,-0.0129454806447029,0.0054183602333068,0.0193323760727683,0.0054660674184708,0.0044808523759633,0.9997881058420288
16432.218225625,0.0044403076171875,-0.0415802001953125,-0.997589111328125,16432.213256625,0.0087225960481909,0.0107496566302477,0.0386411828244159,-0.0131862740963697,-0.0041456492617726,-0.0194479078054428,0.0094459448009729,-0.0168341547250747,-0.0023910999298095,0.0192954901514821,0.005458004378775,0.0044642441970347,0.9997889503762796
16432.228164625,0.0052337646484375,-0.04852294921875,-0.9954376220703124,16432.223195625,0.0084585584047388,0.0105099354140398,0.0384429065568799,-0.0223302375525236,-0.0338929593563079,-0.0258424244821071,-0.003147249110043,-0.0086399465799331,0.000792920589447,0.01919761218621,0.0053352123902915,0.0043294275325484,0.999792088720674
16432.238103625,0.0196533203125,-0.0495147705078125,-1.005661010742188,16432.233133625,0.0083952984128165,0.0103544335219623,0.0382541324735371,-0.0044644218869507,0.0016828123480081,0.0132160279899835,-0.0076153585687279,-0.0060362219810485,0.004082441329956,0.0191037478323676,0.0052564837272762,0.0042958305850864,0.9997944256134904
16432.248041625,0.015838623046875,-0.045379638671875,-1.001556396484375,16432.243072625,0.0085907163281236,0.0104836568773511,0.038255974444906,0.0027924252208322,0.0142271015793085,0.022238552570343,0.0030740015208721,-0.0114359930157661,-0.000542402267456,0.0191038711309046,0.0053229525656717,0.0043947585031307,0.9997936357832414
16432.257980625,0.0142364501953125,-0.03973388671875,-0.9985504150390624,16432.253011625,0.0088612869983637,0.0106566972866824,0.0382900530042207,0.0071080778725445,0.016719251871109,0.0364426523447036,0.007814441807568,-0.0091436430811882,-0.0060082077980041,0.0191197951353019,0.0054121131780592,0.0045317581466358,0.9997922124532668
16432.267919625,0.0205230712890625,-0.03973388671875,-1.001052856445312,16432.262949625,0.0093866677579203,0.0110169694995778,0.0384281518167333,0.0177077259868383,0.0487709268927574,0.0676895231008529,0.0029684286564588,-0.0049010291695594,-0.000631034374237,0.0191865437160081,0.0055975506715424,0.0047982117091037,0.9997886712054768
16432.277857625,0.0140380859375,-0.0380096435546875,-0.996978759765625,16432.272888625,0.0099945729014858,0.0114675216943659,0.0386726163987547,0.0172049198299646,0.0304578673094511,0.0465345680713653,0.0059057977050542,-0.0003079921007156,-9.620189666748048e-05,0.0193058966393193,0.0058292071150662,0.005107110260971,0.9997835745444916
16432.287796625,0.013275146484375,-0.0336761474609375,-0.9959869384765624,16432.282827625,0.0102743092884148,0.0116156322072514,0.0387142946756814,-0.0112954303622245,0.0046257376670837,0.011062329635024,0.0079093156382441,-0.0027535296976566,-0.0016254186630249,0.019325527280806,0.0059060512358003,0.0052484967395117,0.999782004615838
16432.297735625,0.0103302001953125,-0.0390625,-0.999298095703125,16432.292765625,0.0104007234367824,0.0116823227510763,0.0386387716779968,-0.0070974896661937,0.0052135977894067,0.0174087770283222,-0.0002292534336447,0.0046478137373924,0.005945086479187,0.0192872235082954,0.0059404186587398,0.0053121177001734,0.9997822042759024
16432.307673625,0.00994873046875,-0.0302581787109375,-0.9987945556640624,16432.302704625,0.0106334972674068,0.0117853269985678,0.03861025551742,-0.0059733693487942,0.0238352194428443,0.0263961479067802,0.0003697173669934,0.0015980787575244,0.0005738735198974,0.0192719971649055,0.0059940800218073,0.0054293899178259,0.9997815601544988
16432.317612625,0.0124969482421875,-0.03289794921875,-1.007492065429688,16432.312643625,0.0108507894820564,0.0121426926553688,0.0385667310655789,-5.76898455619812e-05,0.0467328801751136,0.0173991899937391,-0.0031154295429587,0.0032788328826427,0.0017614960670471,0.0192485979231794,0.0061747017254815,0.0055413256393241,0.9997803273311544
16432.327551625,0.0121002197265625,-0.035736083984375,-1.010513305664062,16432.322581625,0.0110176741781345,0.0125469393158725,0.0386068815485029,0.0018565906211733,0.0332956314086914,0.0156446993350982,0.0004174439236521,0.0093919448554515,-0.0027311444282531,0.0192670157911246,0.0063784945633361,0.0056287636755649,0.9997782237528918
16432.337489625,0.0123291015625,-0.0313262939453125,-1.013381958007812,16432.332520625,0.0111849329919092,0.0129316688441955,0.0385987927816534,-0.0024992753751575,0.0476331934332847,0.0144959446042776,-0.0015081102028489,0.0027920678257942,-0.0104719400405883,0.0192613405044013,0.0065724059196306,0.0057160551700074,0.9997765344299104
16432.347428625,0.01129150390625,-0.0295562744140625,-1.018661499023438,16432.342459625,0.0112913905745652,0.0136085647923043,0.0386721134910438,0.0188808478415012,0.0750893130898475,0.0097099775448441,-0.0016350876539945,0.0052914768457412,-0.0136728286743164,0.0192956886123608,0.0069120049788363,0.0057760358333944,0.9997732596426572
16432.357366625,-0.00860595703125,-0.028289794921875,-1.00445556640625,16432.352397625,0.0114884976797152,0.0140342905462378,0.0388807721994845,0.0133641101419925,0.0135593116283416,0.0249089039862155,-0.0005649803206324,0.0092994235455989,-0.0167537927627563,0.0193980619390014,0.0071273058993141,0.0058793943865099,0.9997691643914915
16432.367305625,0.0103912353515625,-0.02484130859375,-1.0068359375,16432.362336625,0.0116762195936061,0.0141606378597423,0.038997729049651,0.0133697018027305,0.0208390615880489,0.0151500161737203,-0.0150038991123437,0.0089737884700298,-0.01436448097229,0.0194554797307327,0.0071926186169295,0.0059748661301739,0.9997670502068384
16432.377244625,0.02288818359375,-0.04058837890625,-1.01019287109375,16432.372274625,0.0119228131211428,0.0145030445394164,0.0392233079988535,0.0295055285096168,0.0451012924313545,0.0333467312157154,-0.0149949295446276,0.0160961635410785,-0.0032851099967956,0.01956631354693,0.0073668376134566,0.0061022699622987,0.9997627431164386
16432.387182625,0.0256195068359375,-0.0433807373046875,-1.004959106445312,16432.382213625,0.0121636640469445,0.0148797137665333,0.039439725593016,0.0124948536977171,0.0274344123899936,0.0056354738771915,0.0043584704399108,0.0062873922288417,-0.0115693807601928,0.0196724373328828,0.0075581258056505,0.0062271436290664,0.9997584426553204
16432.397121625,0.0277862548828125,-0.0445709228515625,-1.007476806640625,16432.392152625,0.0120264928247852,0.0149898739516795,0.0394048326193048,-0.0151554159820079,-0.0042755110189318,-0.0322573147714138,0.0104892347007989,-0.0049779489636421,-0.0086857676506042,0.0196551737030971,0.007611740876549,0.0061595293412054,0.9997588151599536
16432.407060625,0.0189056396484375,-0.033599853515625,-1.012451171875,16432.402090625,0.0117210053898975,0.0148220141936756,0.0391642521596332,-0.0235363841056823,-0.0254596248269081,-0.024906188249588,0.0121826818212866,-0.0053709261119365,-0.0044928789138793,0.0195365778381253,0.0075241413018285,0.006004294976168,0.9997627778745024
16432.416998625,0.0052642822265625,-0.028411865234375,-1.00653076171875,16432.412029625,0.0114114833268029,0.0146243363863135,0.0389553884415201,-0.0102938152849674,-0.0144692258909344,-0.0357838720083236,0.0092214997857809,-0.0024058073759078,-0.0123706459999084,0.0194339118247725,0.0074217210082942,0.0058468874002386,0.9997665162227128
16432.426937625,0.0030975341796875,-0.0423126220703125,-0.99627685546875,16432.421968625,0.0111027090171378,0.0144382715279426,0.0389128120727628,0.0011774841696023,-0.0299392621964216,-0.0193103551864624,-0.0018993830308318,0.0115439631044864,-0.0102147459983825,0.0194143040019061,0.007325594737148,0.0056905768777008,0.9997684890137762
16432.436876625,0.0093536376953125,-0.04351806640625,-0.9971160888671876,16432.431906625,0.0109600107490135,0.0141639862196552,0.0388784979527209,0.000907439738512,-0.0242511853575706,-0.0078897885978221,-0.0109484726563096,0.0037276931107044,-0.0036634802818298,0.0193984440583899,0.0071870069032103,0.0056164619766377,0.9997702158200736
16432.446814625,0.0167694091796875,-0.05108642578125,-0.99615478515625,16432.441845625,0.0109948375670882,0.0138714032939288,0.038869315486238,-0.001725893933326,-0.0259739831089973,0.0106306318193674,-0.0081994784995913,-0.0054367594420909,0.004534900188446,0.0193945529323471,0.0070410622565546,0.0056310022413373,0.9997712357449148
16432.456753625,0.01971435546875,-0.0542755126953125,-1.000701904296875,16432.451784625,0.011047365192782,0.0135477939926343,0.0387240706882111,-0.0187259148806333,-0.0318621657788753,0.0034723216667771,0.0006534419953823,-0.0067720785737037,0.004667043685913,0.0193226760991677,0.006879412035389,0.0056536375119812,0.9997736771739943
16432.466692625,0.016510009765625,-0.0495147705078125,-1.003143310546875,16432.461722625,0.0110848145750692,0.0132986958780558,0.0385398004061593,-0.011852828785777,-0.012733744457364,-0.0052585857920348,0.0043965000659227,-0.0148297511041164,-0.0005868077278137,0.0192311400240336,0.0067547545887809,0.0056693489671234,0.9997761524530462
16432.476630625,0.0140380859375,-0.0498199462890625,-1.000946044921875,16432.471661625,0.0110202353428804,0.0132327360765896,0.0384442966181131,-0.0124195497483015,-0.0050153369084,-0.0096633210778236,0.0056372825056314,-0.0143606066703796,-0.0034661293029785,0.0191838025978954,0.0067209040677401,0.0056361214748294,0.9997774835816908
16432.486569625,0.0041961669921875,-0.055908203125,-0.996856689453125,16432.481600625,0.0109338427031937,0.0131881453135229,0.0383467241287377,-0.0136001296341419,-0.0206534191966056,-0.0069399727508425,0.001653466373682,-0.0087970905005931,-0.0042094588279724,0.0191354418028269,0.0066975243805612,0.0055921904403375,0.999778829019939
16432.496508625,0.0073089599609375,-0.0407562255859375,-1.000595092773438,16432.491538625,0.0107701486525134,0.0128536931177056,0.0380491988281224,-0.0439170226454734,-0.0447833575308322,-0.0258038081228733,-0.002956349402666,-0.0166017301380634,-0.0006232261657714,0.0189881808521066,0.0065279862684444,0.0055062208404341,0.9997832288261002
16432.506446625,0.0086517333984375,-0.0375518798828125,-1.005355834960938,16432.501477625,0.0105066348325974,0.0124130264883598,0.0376309665689838,-0.0318877920508384,-0.0465785935521125,-0.0221438258886337,-0.0092453584074974,-0.0122741796076297,0.0032433867454528,0.0187811519213498,0.0063041245079408,0.0053690313521985,0.9997893579815412
16432.516385625,0.0066070556640625,-0.030364990234375,-1.004791259765625,16432.511416625,0.0104260577203498,0.0119104746549603,0.0373310558759187,-0.0279961135238409,-0.0463777892291545,0.003479778766632,-0.0016174791380763,0.0017083473503589,-0.0067185163497924,0.018632820967578,0.0060513801471,0.0053231539250553,0.999793882014069
16432.526324625,0.014007568359375,-0.03338623046875,-1.008438110351562,16432.521354625,0.0106398290447786,0.0114798010677916,0.0371019191398948,-0.0308041516691446,-0.0448954738676548,0.0531144440174102,-0.0058869402855634,0.0013115219771862,-0.0041415095329284,0.0185187975360279,0.0058374820282508,0.0054253589848105,0.9997967378794153
16432.536262625,0.0189208984375,-0.021270751953125,-1.009048461914062,16432.531293625,0.0112921136106483,0.0111294412225159,0.0368143457095966,-0.0005141557194292,-0.0103832725435495,0.0510146729648113,-0.0012492416426539,0.0091875977814197,-0.0096353292465209,0.0183741409657451,0.0056675801013185,0.0057474054272726,0.9997986533746698
16432.546201625,0.0160980224609375,-0.0291290283203125,-0.996307373046875,16432.541232625,0.0115186234474146,0.0111600260062009,0.0369901730477562,0.0168531164526939,0.0108479801565408,0.0003799921832978,0.0092946076765656,0.0095311552286148,-0.0057511329650878,0.0184613055085613,0.0056854475789786,0.0058613996698871,0.999796271306166
16432.556140625,0.01715087890625,-0.0394439697265625,-0.998016357421875,16432.551170625,0.0115142290981877,0.0112538661000436,0.037060002557138,-0.0056207668967545,0.0038485955446958,0.0017544492147862,0.0062864385545253,0.0160859264433383,-0.0060446858406066,0.0184959510152414,0.0057325149205295,0.0058602619417047,0.9997953532130576
16432.566078625,0.0121917724609375,-0.040985107421875,-0.994537353515625,16432.561109625,0.0114970171371436,0.0112492172993398,0.0370343968600598,-0.0017301547341048,-0.0083835693076252,-0.0028102085925638,0.0050703696906566,0.0005116313695907,0.0033710002899169,0.0184832138315833,0.0057299596115571,0.0058515441383789,0.999795647580395
16432.576017625,0.01763916015625,-0.0420074462890625,-0.995147705078125,16432.571048625,0.0116166542890368,0.0111945487136212,0.037008188275014,-0.0103385560214519,0.00055200047791,0.0305546708405017,0.00532335229218,-0.0018796771764755,0.0012058019638061,0.0184699309756335,0.0057036617968347,0.0059107733298242,0.9997956956466356
16432.585956625,0.0191650390625,-0.04052734375,-1.0018310546875,16432.580986625,0.0120631317268366,0.0112918067543171,0.0369953074477024,0.0026787084061652,0.0222940482199192,0.0548549517989158,0.0018997443839907,-0.0046238675713539,0.0064084529876708,0.0184619188101302,0.0057563653718626,0.0061348283989871,0.9997942473452128
16432.595894625,0.0178070068359375,-0.0390472412109375,-1.005813598632812,16432.590925625,0.0125907288223301,0.0115061175591507,0.0370521967174768,0.0021916162222623,0.0192871056497097,0.0461955517530441,0.0069193840026855,-0.0041092559695243,0.0002240538597106,0.0184881543675979,0.0058685451030049,0.0064007114234938,0.9997913499439234
16432.605833625,0.015106201171875,-0.032379150390625,-1.012588500976562,16432.600864625,0.0129679187879091,0.0115434882096672,0.0369917784524378,-0.0129002500325441,-0.0032123439013957,0.0303779710084199,0.0079043535515666,-0.0028878934681415,-0.0056487321853637,0.018456720977023,0.0058905204600849,0.0065894415663152,0.9997905926677428
16432.615772625,0.0279083251953125,-0.0140380859375,-1.029083251953125,16432.610802625,0.0131183457657306,0.0115124778269055,0.0368635891638065,-0.0079020299017429,0.0017810836434364,-0.0079164206981658,0.0046088704839348,0.0007681809365749,-0.0081461071968078,0.0183922997472257,0.0058759931384008,0.0066639919548092,0.9997913789262146
16432.625710625,0.0068206787109375,-0.0145416259765625,-1.029464721679688,16432.620741625,0.0128765530845236,0.0116621712625038,0.0371619497135934,0.0366004556417465,0.0113801807165145,-0.0477772876620292,0.0054817562922835,0.0131512992084026,-0.0177718997001647,0.0185416696957377,0.0059495449505072,0.0065453494653981,0.9997889538457386
16432.635649625,0.0008697509765625,-0.0176239013671875,-1.024490356445312,16432.630679625,0.0123232529732836,0.0113829897507688,0.0374933105800941,0.0216686446219682,-0.0621525272727012,-0.0389775335788726,0.0049826698377728,0.0244840122759342,-0.0382278561592102,0.0187098359713621,0.0058058567265488,0.0062670928440308,0.9997884323688768
16432.645588625,0.019073486328125,-0.018524169921875,-1.029510498046875,16432.640618625,0.0122441401777588,0.0110539620091757,0.0378256783457774,0.0532920844852924,0.0010794401168823,0.0264169201254844,-0.0093978885561227,0.0199638530611991,-0.0242748856544494,0.0188772387811325,0.0056416373368406,0.0062253658204383,0.9997864853699796
16432.655526625,0.01678466796875,-0.030181884765625,-1.017822265625,16432.650557625,0.0126081004408357,0.0112323950036873,0.0384355692200996,0.0656403601169586,0.0209234841167926,0.0362869948148727,0.0014714412391185,0.0218702964484691,-0.0288624763488769,0.0191805187934911,0.0057361589972556,0.0064106664487674,0.9997790387002612
16432.665465625,0.012664794921875,-0.0488128662109375,-1.003494262695312,16432.660496625,0.0128276913312637,0.0112973652820472,0.0388978344698109,0.024160299450159,-0.0122557738795876,0.0176856126636266,0.0095244003459811,0.01667121052742,-0.0285301208496093,0.0194107589359963,0.0057721999600743,0.0065223375672913,0.9997736270918016
16432.675403625,0.017791748046875,-0.0684661865234375,-1.001113891601562,16432.670434625,0.0135885655021293,0.01112841686458,0.0391034530240619,0.0156291276216507,-0.0124490186572074,0.14473557472229,6.500445306301117e-05,0.0034031569957733,-0.0074638724327087,0.0195119308815332,0.005695816564657,0.0069016069914866,0.9997695272458734
16432.685342625,0.0013275146484375,-0.015380859375,-0.99603271484375,16432.680373625,0.0150047125597977,0.0109636330908825,0.0392604395493893,0.0038888487033545,-0.0213865879923105,0.1030339375138283,0.005387189798057,-0.0286360196769237,-0.0057744979858398,0.0195869930304833,0.005627838335195,0.0076083262736886,0.9997634020519952
16432.695281625,0.0005645751953125,0.0030059814453125,-1.01129150390625,16432.690311625,0.0150340228301112,0.0105575170090468,0.0388741729179524,-0.0634467825293541,-0.0604224726557731,-0.1081675291061401,0.0012914668768644,-0.0050046555697917,0.0029882788658142,0.0193953706828058,0.0054236840715589,0.0076180100270389,0.9997681358041102
16432.705219625,0.0038909912109375,-0.0399627685546875,-1.012420654296875,16432.700250625,0.0134779506153152,0.0100679347121324,0.0387655515233723,0.0515679530799388,-0.0528319254517555,-0.1657432019710541,-0.0130051551386714,0.0422500818967819,-0.0015496015548706,0.0193469596140377,0.005163495504361,0.0068351366727316,0.9997761239504818
16432.715158625,0.005401611328125,-0.052490234375,-0.9893951416015624,16432.710189625,0.0126351981299822,0.0095939381071433,0.0390236757423467,0.0068809101358056,-0.052206814289093,-0.0029281871393322,-0.005741280503571,0.0225800350308418,-0.0205216407775878,0.0194796870051663,0.0049191998215639,0.0064098714209731,0.9997775912186592
16432.725097625,0.006683349609375,-0.036346435546875,-0.9998779296875,16432.720127625,0.0127006230822721,0.0089683395737531,0.0391188616352194,0.0107198562473058,-0.0610431879758834,-0.0107152704149484,-0.004810974933207,-0.0173181407153606,0.0044133067131042,0.0195291233079456,0.0046074052953613,0.0064366907566532,0.999777914416028
16432.735035625,0.0044403076171875,-0.02947998046875,-0.996307373046875,16432.730066625,0.0124407492271542,0.0084310948555169,0.0391805319914204,0.010702546685934,-0.0455934256315231,-0.0310454424470663,-0.0013139368966221,-0.0029895454645156,0.0040646195411682,0.0195622440508272,0.0043364939059405,0.0063016626055737,0.999779319415494
16432.744974625,0.01263427734375,-0.0443267822265625,-1.002517700195312,16432.740005625,0.0122786385939702,0.0081408039147661,0.0393261175968594,0.0203604996204376,-0.0178683195263147,0.0025250352919101,-0.0020766882225871,0.0103700347244739,0.0013909935951232,0.0196362741577537,0.0041902354882645,0.0062180728395672,0.9997790592597768
16432.754913625,0.0093841552734375,-0.04302978515625,-0.9912109375,16432.749943625,0.012217545589801,0.008073404960074,0.0395514832730293,0.0211685020476579,-0.0041747093200683,-0.0274388566613197,-0.0005596876144409,0.0008143410086631,-0.0018369555473327,0.019749268650266,0.0041566228739133,0.0061873125493495,0.9997771630820868
16432.764851625,0.0136871337890625,-0.0709228515625,-0.9913482666015624,16432.759882625,0.011694641606026,0.007868806400573,0.0395159821113737,-0.037420243024826,-0.0502820163965225,-0.0717485323548317,0.0048022046685218,-0.0011132210493087,-0.0010251998901367,0.0197332130457674,0.0040490799409812,0.0059238300068099,0.9997795741964652
16432.774790625,-0.0037841796875,-0.0551605224609375,-0.9996490478515624,16432.769821625,0.0111229616868069,0.0072990237621455,0.0391921636722564,-0.0231459643691778,-0.0590960830450058,-0.0328626483678817,0.0036014136858284,-0.0171686001121997,0.0119465589523315,0.0195741023525361,0.0037577217971841,0.0056318578992419,0.99978544266755
16432.784729625,-0.021209716796875,-0.011444091796875,-0.9937591552734376,16432.779759625,0.0109980922664987,0.006755917246434,0.0388852933373594,-0.0236498340964317,-0.0424848794937133,-0.0116505715996027,0.0026486478745937,-0.0345498248934745,0.002715528011322,0.0194224441894428,0.0034841706708881,0.0055636186934935,0.9997898560898424
16432.794667625,-0.0009613037109375,-0.026397705078125,-1.014617919921875,16432.789698625,0.0107349088074361,0.0064288757131201,0.0386694242524867,-0.0041243364103138,-0.0331013649702072,-0.030181910842657,-0.0239258650690317,0.0099579840898513,0.0029549598693847,0.0193158795242267,0.0033175559793384,0.0054285431579618,0.9997931678658788
16432.804606625,0.0086517333984375,-0.0351715087890625,-1.019332885742188,16432.799637625,0.0105806112151574,0.0060782903920894,0.0387951601811396,0.0222460180521011,-0.0376598984003067,0.0035920301452279,-0.0187537409365177,0.0241064503788948,-0.0033343434333801,0.019379927340281,0.0031411379135647,0.0053482085814304,0.9997929758827137
16432.814545625,0.013397216796875,-0.0336151123046875,-1.007354736328125,16432.809575625,0.0106017525829742,0.0057889510337654,0.0391164471323811,0.0415589958429336,-0.0210363827645778,-0.0072478340007364,0.0005021225661039,0.0054455623030662,-0.0212131738662719,0.0195412805728498,0.0029975455604574,0.005356421991072,0.9997901670056848
16432.824483625,0.016387939453125,-0.0587921142578125,-0.9954986572265624,16432.819514625,0.0103262777324671,0.0055846700272469,0.0394672111503444,0.0330858826637268,-0.021241445094347,-0.0405605174601078,0.0057112043723464,0.0072151198983192,-0.0140084028244018,0.0197175717995004,0.002893630578523,0.0052171893226102,0.9997877280339096
16432.834422625,0.0082855224609375,-0.0549163818359375,-0.9891510009765624,16432.829453625,0.0101211554275408,0.0053778545683776,0.0397677587886045,0.0252684392035007,-0.0200016088783741,-0.0001294710673391,0.0099004637449979,-0.0059428177773952,-0.0026056170463562,0.0198686385312389,0.0027889746604764,0.0051129996506103,0.9997856056341516
16432.844361625,0.0047454833984375,-0.0390777587890625,-0.9957122802734376,16432.839391625,0.0102059263689949,0.0052405040053808,0.0399949568814409,0.0218244399875402,-0.0091968988999724,0.011571392416954,0.008389800786972,-0.0222715847194194,0.008586049079895,0.0199824489261936,0.0027217298828049,0.0051542975791784,0.9997833107846784
16432.854299625,0.0069580078125,-0.0386199951171875,-0.998779296875,16432.849330625,0.0101979147147518,0.0051978793198273,0.0402628127678412,0.0250069182366132,-0.0027518831193447,-0.013617449440062,-0.0004786849021911,-0.005249798297882,0.0078735947608947,0.0201164680077385,0.002701017816726,0.0051502009322642,0.999780721044024
16432.864238625,0.0169219970703125,-0.0502166748046875,-1.001068115234375,16432.859269625,0.0100290289364529,0.0051823052928185,0.0405571574515605,0.0188952293246984,-0.0014333520084619,-0.0196977127343416,-0.0003257333301007,0.0025363713502883,0.0012547373771667,0.0202638757812015,0.0026922639876637,0.0050659863251275,0.9997781823288462
16432.874177625,0.0232696533203125,-0.0557861328125,-0.99749755859375,16432.869207625,0.0098879541148135,0.0050849970540319,0.0407210610148564,0.0205181594938039,-0.0092809218913316,-0.0133802946656942,0.0068668648600578,-0.0032660476863384,-0.0006893277168273,0.0203462425624917,0.0026425921565279,0.0049946787630195,0.9997769870418386
16432.884115625,0.0229949951171875,-0.0603179931640625,-0.9989166259765624,16432.879146625,0.0097651301063059,0.0049632194798829,0.0408224802780059,0.0119489058852195,-0.0082071358337998,-0.0080108297988772,0.0147095080465078,-0.0136932767927646,-0.0008454322814941,0.0203974027655696,0.0025807122857594,0.0049321621475803,0.999776452803235
16432.894054625,0.0084381103515625,-0.059783935546875,-0.9923858642578124,16432.889085625,0.0098052919320834,0.0049042944198893,0.0409804823824555,0.0224042106419801,-0.0082516781985759,0.0186239778995513,0.0194070860743522,-0.0167092308402061,0.0028868317604064,0.0204764796924359,0.00255204914236,0.0049518232442836,0.9997748375567492
16432.903993625,0.000823974609375,-0.0548553466796875,-0.9899749755859376,16432.899023625,0.0100543474799424,0.0047240967314246,0.0411273483491737,0.0090955952182412,-0.021722212433815,0.0269705913960933,0.0115152597427368,-0.0200720131397247,0.000714898109436,0.0205500352684455,0.0024648860061103,0.0050746438345254,0.9997729384243764
16432.913931625,0.0035247802734375,-0.052886962890625,-0.9954986572265624,16432.908962625,0.0102875944655388,0.0044673931219981,0.0412219987481776,0.0083914548158645,-0.0327600836753845,0.0232525505125522,-0.0022968431003391,-0.0168951638042926,0.0111187100410461,0.0205977278880499,0.0023392011682241,0.0051887037503888,0.9997716904678332
16432.923870625,0.0125885009765625,-0.0493011474609375,-1.001800537109375,16432.918901625,0.0105728709246033,0.0042286694031387,0.0413328343695272,0.0068617351353168,-0.0134348543360829,0.0323954485356807,-0.0017683883197605,-0.0109097883105278,0.0040045976638793,0.0206534347586987,0.0022230950544325,0.0053289617111623,0.9997700969038622
16432.933809625,0.0158843994140625,-0.0473785400390625,-1.006332397460938,16432.928839625,0.010855824596741,0.0041737138866009,0.0414251910456031,0.0091842785477638,-0.0011446652933955,0.0212145671248436,0.0035813366994261,-0.0093984492123126,0.0019410252571105,0.0206994388291129,0.0021987942948461,0.005469929819042,0.9997683989772992
16432.94374741667,0.0070953369140625,-0.0415802001953125,-1.003082275390625,16432.93877841667,0.0109084430682739,0.0040531604526779,0.0414325134859781,-0.0087614320218563,-0.0246593132615089,-0.0134331583976745,0.0116210980340838,-0.0074380077421665,-0.0070157051086425,0.0207033734632053,0.0021390960420463,0.0054949924933103,0.9997682680627996
16432.95368641667,0.0108489990234375,-0.0412139892578125,-1.0042724609375,16432.94871741667,0.0107284584498084,0.0037792038839854,0.0413326983297602,-0.0124107617884874,-0.0272751040756702,-0.0091733001172542,0.0071950946003198,-0.003082163631916,-0.0041875839233398,0.0206544098865623,0.0020000205454282,0.0054020962613304,0.9997700784790464
16432.96362541667,0.01312255859375,-0.03179931640625,-1.008438110351562,16432.95865541667,0.010901483797718,0.0036523325005519,0.0413292740075312,0.007554689887911,-0.0039974767714738,0.0352639406919479,0.0037818173877894,0.0014310106635093,-0.003851294517517,0.0206528729805215,0.0019383770422318,0.0054872758196471,0.9997697757506132
16432.97356341667,0.01263427734375,-0.032470703125,-1.007186889648438,16432.96859441667,0.0112170243269539,0.0037625326344527,0.0415239413204845,0.0253496654331684,0.0159666780382394,0.0247749462723732,0.0089665418490767,0.0048451200127601,-0.0080101490020751,0.0207495653829008,0.0019972645740506,0.0056463189749066,0.999766846686094
16432.98350241667,0.0094451904296875,-0.0352783203125,-1.003326416015625,16432.97853341667,0.0114784849371536,0.0039735249977627,0.0418388788296272,0.0295052621513605,0.0253367442637682,0.031324990093708,0.0104952873662114,0.01077501475811,-0.0083750486373901,0.0209061274414569,0.0021063457978263,0.0057795019608831,0.9997625413906864
16432.99344141667,0.0082244873046875,-0.0399322509765625,-1.000534057617188,16432.98847141667,0.0118563057357354,0.0042999479235526,0.042208591115549,0.0339194498956203,0.0396717749536037,0.0402965173125267,0.0062019345350563,0.0078637599945068,-0.0061336755752563,0.0210895671428497,0.0022745549683307,0.0059721538711646,0.9997571564453956
16433.00337941667,0.00238037109375,-0.049285888671875,-1.005599975585938,16432.99841041667,0.012137639628586,0.0045559087430814,0.0425110625992052,0.0219320319592952,0.0082922801375389,0.0125445118173956,0.0060378154739737,0.0059992112219333,-0.003706157207489,0.0212396638050902,0.002406381147084,0.0061158107303763,0.9997527724129808
16433.01331841667,0.00262451171875,-0.0487060546875,-0.999786376953125,16433.00834941667,0.0121893247549546,0.0044741249868928,0.0427312587633343,0.0097057251259684,-0.0111274570226669,0.0086353914812207,0.0023353858850896,-0.0029055438935756,-0.0012890100479125,0.0213499232205336,0.002366713831936,0.0061410102170071,0.9997503788893188
16433.02325641667,-0.0063018798828125,-0.0470733642578125,-1.004928588867188,16433.01828741667,0.0124234543176461,0.0044187410331688,0.0428140330313256,0.013113772496581,-0.0040237419307231,0.029984887689352,-0.0032397587783634,-0.0070037543773651,-0.0058394074440002,0.0213911949815354,0.0023417830275084,0.0062575401134103,0.9997488845727314
16433.03319541667,-0.0071868896484375,-0.045562744140625,-0.9975128173828124,16433.02822641667,0.012588946555325,0.0044053907059627,0.0429694371845107,0.0111611429601907,-0.0080124251544475,0.0030648577958345,-0.0039588129147887,-0.0062534026801586,-0.003160536289215,0.0214687265809601,0.0023373649563778,0.0063402834483464,0.9997466826732254
16433.04313441667,-0.0068511962890625,-0.0489654541015625,-0.997650146484375,16433.03816441667,0.0125306304525477,0.0042242160352478,0.0430423813031462,0.008468952961266,-0.0327196344733238,-0.0133732371032238,-0.0117123639211058,-0.0010077990591526,-0.0013012886047363,0.0215058283056945,0.0022464012494573,0.0063092597915303,0.9997463310412404
16433.05307241667,-0.002838134765625,-0.043121337890625,-1.001235961914062,16433.04810341667,0.0123980071300524,0.0038681850769442,0.0430842518959241,0.0021151835098862,-0.0385497957468032,-0.0080332001671195,-0.0120127871632576,-0.0068711154162883,0.0001174211502075,0.0215280188390088,0.0020671336818483,0.0062391743126993,0.9997466517911529
16433.06301141667,0.0031890869140625,-0.043853759765625,-1.001983642578125,16433.05804241667,0.0125237376908041,0.0036955779452304,0.0431147429343078,0.0093978634104132,0.0011203866451978,0.034127302467823,-0.0083308145403862,-0.0018968060612678,0.0003914237022399,0.0215436747880894,0.001982300255588,0.0063001919432728,0.9997460815167708
16433.07295041667,-0.0044403076171875,-0.04437255859375,-0.98992919921875,16433.06798041667,0.0129548441546525,0.003941218790059,0.043184655286506,0.0035106798168271,0.0450580194592475,0.0448507890105247,-0.0028389086946845,0.0006907433271408,-0.0036866664886474,0.021577394212229,0.0021099580001857,0.0065184003020435,0.9997436761210544
16433.08288841667,-0.0029754638671875,-0.039459228515625,-0.9857025146484376,16433.07791941667,0.0130678849287906,0.0045377159146945,0.0430646219425301,-0.0043464447371661,0.0475475341081619,0.0013461867347359,-0.0034348680637776,-0.0012297183275222,0.0013666749000549,0.0215153118792267,0.0024089603896218,0.006581213669389,0.999743918486796
16433.09282741667,-0.0093231201171875,-0.0314178466796875,-0.990264892578125,16433.08785841667,0.0128671152698821,0.0050458746702859,0.0428506286041675,-0.0166467856615781,0.0413956344127655,-0.0193580258637666,-0.0074368589557707,-0.000375397503376,0.010269284248352,0.0214069370211302,0.0026601326121955,0.0064860659391376,0.9997462183119884
16433.10276641667,-0.010284423828125,-0.0337371826171875,-0.9832000732421876,16433.09779641667,0.012504475044438,0.0051155827316014,0.0429299964160651,0.0149518866091966,0.0123477410525083,-0.0435483157634735,-0.0103446189314127,0.004891887307167,0.0132715106010437,0.0214468731187221,0.0026913421622572,0.0063056340023128,0.999746433962686
16433.11270441667,0.00921630859375,-0.0691375732421875,-0.990234375,16433.10773541667,0.0124792258183034,0.0053821953093831,0.0430170541989753,0.0342044085264205,0.0398920848965644,0.0494223684072494,-0.021032715216279,0.0141341350972652,0.000845730304718,0.0214895856817651,0.0028246128847846,0.0062959827624714,0.999745218338232
16433.12264341667,-0.00164794921875,-0.0400390625,-0.9774322509765624,16433.11767441667,0.0133449278256481,0.0057177510804917,0.0428703940944707,-0.0677856057882309,0.0272322166711092,0.0937818437814712,-0.0029048565775156,-0.0099381692707538,0.0147508978843689,0.0214139189255196,0.0030011641252797,0.0067321284879607,0.9997435616118472
16433.13258241667,-0.00457763671875,-0.0295867919921875,-1.003921508789062,16433.12761241667,0.01350945043776,0.0056295902686667,0.0423370782514852,-0.043624609708786,-0.0390236712992191,-0.058966290205717,5.969777703285217e-06,-0.0187412649393081,0.0171239972114563,0.0211473818299278,0.0029570717723645,0.0068127126674186,0.9997488263298524
16433.14252041667,0.009796142578125,-0.040435791015625,-1.012359619140625,16433.13755141667,0.0128306663864263,0.00529665611719,0.0418456288499321,-0.0437862649559974,-0.0136663829907774,-0.0574187263846397,-0.0160799659788608,0.011895652860403,0.0088609457015991,0.0209037986743252,0.0027819065709355,0.0064692680040284,0.9997566573303948
16433.15245941667,0.0091400146484375,-0.040863037109375,-1.011459350585938,16433.14749041667,0.0127158854462537,0.0055821587722444,0.0421691393945158,0.1096712052822113,0.0647426694631576,0.0208236146718263,-0.0001755636185407,0.0087856464087963,-0.0072216987609863,0.0210647576556924,0.0029244420886298,0.0064153049774943,0.9997532617231152
16433.16239841667,0.0125579833984375,-0.0453643798828125,-0.997802734375,16433.15742841667,0.0127450633619089,0.0062309026670091,0.0432342707408948,0.0875762850046157,0.0570354834198951,-0.0164345409721136,0.0004125256091356,-0.0012891069054603,-0.0185930132865905,0.0215950601717898,0.0032523988154346,0.0064383093739323,0.9997407468306254
16433.17233641667,0.0152130126953125,-0.048187255859375,-1.010360717773438,16433.16736741667,0.0125308214495443,0.006679654800261,0.0441487140186762,0.1162651926279068,0.0434138812124729,-0.0189983658492565,0.0040538241155445,0.0033781267702579,-0.0025988221168518,0.0220510879657764,0.0034772339975799,0.006337525370187,0.9997307069784566
16433.18227541667,0.007110595703125,-0.014434814453125,-1.003631591796875,16433.17730641667,0.0126753163575951,0.0071173683192102,0.0450824746172755,0.0406908020377159,0.0501721873879432,0.0516345240175724,0.0068211900070309,-0.0030285194516181,-0.0026435256004333,0.0225161848712972,0.0037005457650272,0.0064161740533339,0.9997190593406468
16433.19221441667,-0.004547119140625,-0.0159454345703125,-1.025177001953125,16433.18724441667,0.0132779527830037,0.0074640313169154,0.0449252518998657,-0.0354489721357822,0.0243889577686786,0.0542251132428646,0.0087026190012693,0.0014836080372333,-0.0141898393630981,0.0224353140957555,0.0038800972197196,0.0067210279704516,0.9997182300694396
16433.20215241667,0.0246124267578125,-0.039093017578125,-1.027297973632812,16433.19718341667,0.0138989917140072,0.0075185968636641,0.0444297162248642,-0.06583883613348,0.0013408958911895,0.074477918446064,-0.0133704897016286,0.0436979122459888,-0.0116962194442749,0.0221862197324126,0.0039126384044612,0.007031179518545,0.9997214465157672
16433.21209141667,0.020355224609375,-0.0384674072265625,-1.006805419921875,16433.20712241667,0.0145738827853698,0.0075718027089951,0.0436493577015451,-0.1068507134914398,0.0101035628467798,0.0490697659552097,0.0035438728518784,0.0107375234365463,-0.0301558971405029,0.0217946310849519,0.0039439104556457,0.0073677069193811,0.9997274808191214
16433.22203041667,0.008087158203125,-0.053070068359375,-0.9956207275390624,16433.21706041667,0.0147891806064034,0.0077320057030146,0.0425808082946209,-0.0916536524891853,0.0314783602952957,0.0011917236261069,0.0180776845663785,0.0039784424006938,-0.0205590724945068,0.0212594738928293,0.0040224306925533,0.0074750919026691,0.9997379570043178
16433.23196841667,-0.00439453125,-0.0439453125,-0.9988250732421876,16433.22699941667,0.0148568293830962,0.0080936253300359,0.0418356102863874,-0.0608225017786026,0.0293323174118995,0.0098054520785808,0.0044104848057031,-0.0022745169699192,0.002708613872528,0.0208854776289775,0.0042011769295712,0.0075113024328168,0.9997447963634148
16433.24190741667,-0.0025634765625,-0.0323028564453125,-1.017135620117188,16433.23693841667,0.01522474054061,0.008052111933324,0.0411328791450812,-0.0948150902986526,-0.0476759150624275,0.0954601690173149,-0.0061683906242251,-0.0129406340420246,0.0023871660232543,0.0205335862873217,0.0041816225710836,0.0076934183942893,0.9997508162269432
16433.25184641667,0.019775390625,-0.022308349609375,-1.048980712890625,16433.24687641667,0.0162957716956142,0.0079251598227555,0.0406691845304223,0.0067802425473928,0.0406084731221199,0.1332341879606247,-0.0178672615438699,-0.0003424137830734,-0.0076331496238708,0.0203000771604512,0.0041272882715893,0.0082266164091155,0.999751549747084
16433.26178441667,0.0222320556640625,-0.036407470703125,-1.01666259765625,16433.25681541667,0.0182155175574635,0.0078607515308261,0.0401235074743439,-0.1283647865056992,-0.0247148722410202,0.2378980070352554,0.0055428650230169,0.0259983390569686,-0.0330012440681457,0.0200236324591025,0.0041121132879952,0.009184571497931,0.9997488379700752
16433.27172341667,0.0147247314453125,-0.0597381591796875,-1.00115966796875,16433.26675441667,0.0206042859345077,0.0076739396981106,0.0389698353626652,-0.0954467952251434,-0.0022796718403697,0.2313950955867767,0.0152048785239458,0.0094036720693111,-0.0454511046409606,0.0194429872343698,0.004036747308231,0.0103746837958894,0.9997489611980864
16433.28166241667,0.0167999267578125,-0.0577239990234375,-0.9902801513671876,16433.27669241667,0.0227670027066139,0.0073455313103892,0.0380373709323354,-0.0870115011930465,-0.0465699061751365,0.1947246938943863,0.0105431396514177,-0.0111356377601623,-0.0030085444450378,0.0189743783839125,0.0038883353615007,0.0114509625120615,0.9997468196749346
16433.29160041667,0.0117950439453125,-0.055023193359375,-1.000839233398438,16433.28663141667,0.0247250770859182,0.0066135418135116,0.0371223995279815,-0.1001472771167755,-0.0794841423630714,0.2040743976831436,0.0069713774137198,-0.0243180356919765,0.0047823786735534,0.0185177429699792,0.0035353860434359,0.0124213963664469,0.9997450846509502
16433.30153941667,1.52587890625e-05,-0.0504913330078125,-1.00787353515625,16433.29657041667,0.0273491941155309,0.005569988862945,0.0358777032095682,-0.1643145382404327,-0.115437887609005,0.3312664330005646,0.0113708721473813,-0.0179935358464717,0.0064821243286132,0.0178980672380414,0.0030295673519284,0.0137218704868112,0.9997410208241168
16433.31147841667,0.0151519775390625,-0.0349884033203125,-1.042190551757812,16433.30650841667,0.0313385390025729,0.0040804223186714,0.0342724148642773,-0.1519838273525238,-0.1568223088979721,0.4607771635055542,0.0001791790127754,-0.0201319009065628,-0.0039372444152832,0.0171012680355804,0.0023081471205642,0.0157012516541547,0.9997277453982336
16433.32141641667,0.0062713623046875,-0.0327301025390625,-1.039108276367188,16433.31644741667,0.0365745889801362,0.0024293039830526,0.0332102799654845,-0.0857544839382171,-0.1284095793962479,0.6088989973068237,0.0047284020110964,-0.0122517794370651,-0.0260365009307861,0.0165793800064056,0.0015179131651958,0.0183039060486354,0.9996938389978012
16433.33135541667,-0.007110595703125,-0.062744140625,-1.026123046875,16433.32638641667,0.0440228898449663,0.0004863589729316,0.0321800215248331,-0.1441799700260162,-0.2240006774663925,0.8958889245986938,0.0177633967250585,0.004662849009037,-0.046767234802246,0.0160800673047003,0.0005972096334698,0.0220107300761386,0.9996282086167212
16433.34129441667,0.024505615234375,-0.0838775634765625,-1.041763305664062,16433.33632441667,0.0544268022391734,-0.0027658915399265,0.0303274978529972,-0.207815945148468,-0.3729059994220734,1.21340537071228,-0.0054598795250058,-0.0206415299326181,-0.0320646166801452,0.0151951642293192,-0.0009696842950353,0.0271859252438097,0.9995144556904048
16433.35123241667,0.008026123046875,-0.0738067626953125,-1.014495849609375,16433.34626341667,0.0679714536582853,-0.0073154080295241,0.0282355673445241,-0.1917165964841843,-0.4476472437381744,1.487625122070312,0.0163151025772094,-0.0393188670277595,-0.0331859588623046,0.0142333412961204,-0.0031755277595523,0.0339239643374542,0.9993180130737636
16433.36117141667,0.0074310302734375,-0.0816650390625,-1.021011352539062,16433.35620241667,0.0837860708346011,-0.0126022029107472,0.0265891243595736,-0.0923066586256027,-0.5388094186782837,1.726348519325256,0.0315945968031883,-0.0610757768154144,-0.0313471555709838,0.0135461132299576,-0.0057382158985913,0.0417925577039814,0.9990179635167036
16433.37111041667,0.03338623046875,-0.05108642578125,-1.030853271484375,16433.36614041667,0.1029948126874428,-0.0185776488789446,0.0260692553126212,0.0503793843090534,-0.5237058997154236,2.120873212814331,0.0239566136151552,-0.0419268831610679,-0.0115138292312622,0.0134945090745528,-0.0086046839656749,0.0513471441043961,0.9985526096261544
16433.38104841667,0.01324462890625,0.0280609130859375,-1.057662963867188,16433.37607941667,0.1251874510820311,-0.0237520287090515,0.0269085572617816,0.2048011869192123,-0.4010628163814545,2.308587551116943,0.0418381094932556,-0.0553548447787761,-0.0232727527618408,0.0141693721242602,-0.0110098865792314,0.0623833248772292,0.997890962003648
16433.39098741667,0.001800537109375,0.003631591796875,-1.033172607421875,16433.38601841667,0.1495096348518881,-0.0279692975317347,0.0282864623922933,0.1579660326242447,-0.322242259979248,2.625294208526611,0.0553592406213283,0.0275349896401166,-0.0500310659408569,0.0151461907684939,-0.0128875913119527,0.0744732200197478,0.9970246558603436
16433.40092641667,-0.0138702392578125,-0.00439453125,-0.9910430908203124,16433.39595641667,0.1788472756643322,-0.0321972287106898,0.0279131806962401,-0.0773660615086555,-0.3425938785076141,3.25063943862915,0.0376722812652587,0.057496327906847,-0.0507580637931823,0.0153360489369573,-0.0147858515541983,0.0890604681717985,0.995798394604679
16433.41086441667,-0.020263671875,0.0146636962890625,-1.020004272460938,16433.40589541667,0.2119132634874391,-0.0358659005727616,0.025968613301298,-0.0107705201953649,-0.2230281978845596,3.369557619094849,0.0320771932601928,0.0028943847864866,-0.0117222070693969,0.0148053491831621,-0.0164569788666141,0.1055010386816812,0.9941728163946716
16433.42080341667,-0.0057220458984375,-0.0170135498046875,-0.9669036865234376,16433.41583341667,0.2465177056228606,-0.0379386615219542,0.0254457400139836,0.1044018715620041,0.0213168356567621,3.642315149307251,0.0157157331705093,0.0603398233652114,-0.0054223537445068,0.014955625125749,-0.0172588471284967,0.1226754178167525,0.9921840932646584
16433.43074241667,0.0065765380859375,0.0393829345703125,-1.017135620117188,16433.42577241667,0.2845882368025601,-0.0371077546740621,0.0244860102011288,-0.0138627178966999,0.3285656869411469,4.0733323097229,0.0305115692317485,-0.0020209737122058,0.0024300217628479,0.0147477399100968,-0.0166280363299066,0.1415545499159106,0.9896808604307789
16433.44068041667,-0.02435302734375,0.041961669921875,-1.032089233398438,16433.43571141667,0.3263300476640431,-0.0347238309775108,0.0231600042462102,0.0430522300302982,0.3188624680042267,4.283003807067871,0.0436339229345321,0.0369976349174976,0.0185688734054565,0.0142441952814897,-0.0152485546337774,0.1622082754811859,0.986535806278792
16433.45061941667,-0.0186004638671875,-0.00225830078125,-1.0009765625,16433.44565041667,0.369579887171479,-0.0323891016853373,0.0221021494031243,0.0262450203299522,0.3276126980781555,4.399731636047363,0.0149652361869812,0.0762995481491088,-0.0466060042381286,0.0138365588354407,-0.0138869510125931,0.183528834016863,0.9828188541509018
16433.46055741667,-0.0332489013671875,-0.07244873046875,-0.9574737548828124,16433.45558841667,0.4142849232520497,-0.030178430339604,0.0210618117252556,0.0331567227840423,0.3143549561500549,4.627686500549316,0.0124364309012889,0.0374939516186714,-0.0111597776412963,0.0134074421813033,-0.0125997233629612,0.2054739831401122,0.9784895928338452
16433.47049641667,-0.0929412841796875,-0.0560455322265625,-0.9332122802734376,16433.46552741667,0.46129788268072,-0.0277874020439188,0.0184415806660158,-0.3149083256721497,0.3535206317901611,4.799578189849854,0.0081715397536754,-0.0250165145844221,0.0156946182250976,0.0121516064114001,-0.0114170359250153,0.2284528323279833,0.9734121961009434
16433.48043541667,-0.092620849609375,-0.04205322265625,-1.01434326171875,16433.47546541667,0.5071456043020073,-0.0258504375627918,0.0138308690998545,-0.3162598609924316,0.1943749338388443,4.386156558990479,-0.0340304225683212,-0.0633332878351211,0.0769934058189392,0.0099359883603696,-0.010776577203745,0.2507506347641072,0.9679407119528832
16433.49037441667,-0.0790252685546875,-0.0535430908203125,-1.053131103515625,16433.48540441667,0.5472227372627156,-0.0252712896607555,0.0113812179802814,0.0494696497917175,0.0222126226872205,3.704872131347656,-0.0718247294425964,-0.0369894057512283,0.0313847661018371,0.0088925944916288,-0.0106275659975854,0.2701150676222643,0.9627282402583864
16433.50031241667,-0.0604400634765625,-0.0802459716796875,-0.989227294921875,16433.49534341667,0.5827371288610441,-0.0256306495087416,0.012408381456068,0.3119087219238281,0.0084422156214714,3.453783988952637,-0.0663541257381439,-0.0148288905620575,-0.0539026856422424,0.0096233705403761,-0.0104925287334269,0.2871581126964171,0.957777343328696
16433.51025141667,-0.02777099609375,-0.0055999755859375,-1.058563232421875,16433.50528141667,0.6154078973774689,-0.0259078527311042,0.0158578686673973,0.5578937530517578,0.0155874770134687,3.091858625411987,-0.0371781550347805,-0.0796017944812774,-0.0160710215568542,0.0114789496751378,-0.0099435470234303,0.3027384169567716,0.9529526668179392
16433.52018941667,0.048065185546875,0.0187225341796875,-1.087554931640625,16433.51522041667,0.6454113371636512,-0.0262070081228794,0.0214280946332516,0.7102640867233276,0.0603381693363189,2.973876714706421,-0.0281690917909145,-0.0155150890350341,-0.0111929774284362,0.0143151362149121,-0.0090286142198135,0.3169551607436198,0.948289494900438
16433.53012841667,0.045074462890625,0.0596923828125,-1.086761474609375,16433.52515941667,0.6762866140357254,-0.0259198291582394,0.0283514891928373,0.8325463533401489,0.1234017610549927,3.189805746078491,0.0366181656718254,0.046002097427845,-0.0867819190025329,0.0176701517703292,-0.0075223988878806,0.3315016184554598,0.9432591865500086
16433.54006741667,0.0482177734375,0.064971923828125,-1.088790893554688,16433.53509741667,0.707820777494575,-0.0258313747190297,0.0359918466777357,0.8805549144744873,0.0941173732280731,3.089761972427368,0.0843139514327049,0.0619087480008602,-0.0867506861686706,0.0213536215910528,-0.0058769718709758,0.3462654582426626,0.937875128309362
16433.55000541667,-0.0149078369140625,0.02984619140625,-1.047317504882812,16433.54503641667,0.7396023136755507,-0.0270618704314289,0.0437627225928511,0.7980024814605713,-0.1161415874958038,3.299776554107666,0.0705659687519073,0.1250475645065308,-0.0868334770202636,0.025287834345717,-0.0047056027779206,0.361034397876324,0.932197738482362
16433.55994441667,-0.1164398193359375,0.0362548828125,-1.045089721679688,16433.55497541667,0.7736465173306439,-0.0324127079588474,0.0486456668778228,0.3042148351669312,-0.8045822978019714,3.496546030044556,0.0632372051477432,0.0902524515986442,-0.0822129249572753,0.0286322383455162,-0.0058301661839525,0.3767222028336478,0.9258652562368912
16433.56988341667,-0.0355682373046875,-0.0693817138671875,-0.964324951171875,16433.56491341667,0.8086057056270887,-0.0430044241977675,0.0494912187914644,0.2521641552448273,-0.9112398624420166,3.406374931335449,-0.0296322926878929,0.0801411718130111,-0.0299188494682312,0.0311982184731733,-0.0100299271045626,0.3926775010619977,0.919092077824095
16433.57982141667,-0.0593109130859375,-0.0799102783203125,-0.9899444580078124,16433.57485241667,0.8417867166840263,-0.0548166233909255,0.0516950157614812,0.4566286206245422,-1.142296075820923,3.316393613815308,-0.0104695856571197,0.0441188886761665,0.0322287678718566,0.0347734003344267,-0.0144492148923356,0.4076396833334795,0.9123660650409966
16433.58976041667,-0.0602264404296875,-0.1215667724609375,-0.95263671875,16433.58479141667,0.8754963957905167,-0.0682279316005184,0.0537451947937125,0.3955972194671631,-1.160898804664612,3.368228197097778,0.0154184699058532,-0.0326301753520965,-0.0038129687309265,0.0387745784096632,-0.0194968373393675,0.4226714661889401,0.9052430846961496
16433.59969941667,-0.073394775390625,-0.173828125,-0.9821929931640624,16433.59472941667,0.9053797046829226,-0.0789964850977582,0.0578620867790828,1.013835430145264,-0.575273334980011,2.464457273483276,0.0217143893241882,-0.0274057984352111,0.0311780571937561,0.043257272220381,-0.0228532407738914,0.4358347810339072,0.8986960494976999
16433.60963741667,-0.0413665771484375,-0.07275390625,-0.943450927734375,16433.60466841667,0.9295969060356128,-0.0858669268764836,0.0669451100792175,1.027729153633118,-0.5817843079566956,2.394087791442871,0.0017222836613655,-0.1063379123806953,0.0198103189468383,0.049116283269295,-0.0233582524247763,0.4462947397462434,0.8932317527825544
16433.61957641667,-0.1233062744140625,-0.0768890380859375,-0.9873809814453124,16433.61460741667,0.9557227582556024,-0.0947041108532101,0.0720011294869556,0.4658077359199524,-0.8202764987945557,2.730555295944214,0.059710644185543,-0.0355592370033264,0.0490156412124633,0.0536791501490258,-0.0254709003487078,0.4575552156704231,0.8871938268693123
16433.62951541667,-0.0186920166015625,-0.0493927001953125,-1.046295166015625,16433.62454541667,0.9810914896943324,-0.1026225761320219,0.0750070986173491,0.6935173869132996,-0.4361910820007324,2.274178028106689,-0.0129425600171089,0.0012368336319923,-0.0088056325912475,0.0571752234391517,-0.0275679714552446,0.4684601910026666,0.8812014559671824
16433.63945341667,0.0175933837890625,0.0270233154296875,-1.050491333007812,16433.63448441667,1.00564003745425,-0.10888705799606,0.0794930156974961,0.620041012763977,-0.506591260433197,2.658967018127441,0.0340948104858398,0.0068385154008865,-0.0063149333000183,0.0609687859642074,-0.0285233094953759,0.4789096954231491,0.875279851325037
16433.64939241667,-0.0178070068359375,0.016448974609375,-1.002182006835938,16433.64442341667,1.035520119700982,-0.1186461408227466,0.0795991038112714,0.1427508592605591,-1.014470934867859,3.220000028610229,0.1330078095197678,0.0658584535121917,-0.0873990058898925,0.0638336809180826,-0.0318182194947001,0.4916233025351516,0.8678821921046816
16433.65933141667,-0.07257080078125,-0.0911712646484375,-0.9747467041015624,16433.65436141667,1.067680137801973,-0.1315568182079876,0.0769066571779719,0.1985222548246384,-0.9410797953605652,3.210367679595947,0.1378394812345505,0.1170530393719673,-0.0306601524353027,0.0664451982708748,-0.0370237333277176,0.5051917187677549,0.8596485303983559
16433.66926941667,-0.1093292236328125,-0.1277923583984375,-0.9108734130859376,16433.66430041667,1.098557015892659,-0.140243649425055,0.0755583179635476,0.3334081470966339,-0.3103875815868378,2.966371774673462,0.0911372452974319,0.0405133068561554,-0.002190887928009,0.0686876157917434,-0.0400450719592602,0.5181603239097382,0.8515798485785726
16433.67920841667,-0.0905609130859375,-0.14434814453125,-0.90045166015625,16433.67423941667,1.128508728522937,-0.1421219811248027,0.07336738393203,0.0733307749032974,0.3750360608100891,3.043951511383057,0.047390878200531,-0.0464188754558563,0.0388293266296386,0.0688570012055862,-0.0403907469122696,0.5308770151479058,0.8436805113140866
16433.68914741667,-0.105377197265625,-0.1429595947265625,-0.9915771484375,16433.68417741667,1.158083819552213,-0.1373235080417282,0.0694752063382895,0.0347317159175872,0.9857187271118164,2.901734113693237,0.037303626537323,-0.0690999627113342,0.1044681668281555,0.0665216711761153,-0.0384286431079736,0.543609149349818,0.8358152411321738
16433.69908541667,-0.1080322265625,-0.087982177734375,-0.9969940185546876,16433.69411641667,1.18537810052437,-0.1279664361476428,0.0666919697094549,0.0998907461762428,1.188677668571472,2.632748603820801,0.0335532426834106,-0.0822222009301185,0.0438330769538879,0.0632932164640716,-0.03441936448375,0.555372413907144,0.8284748245746286
16433.70902441667,-0.1631927490234375,-0.0121307373046875,-1.044754028320312,16433.70405541667,1.210813122036193,-0.1184247977999249,0.0638600329548366,-0.0211041178554296,0.9715691208839417,2.403852701187134,0.0050685927271842,-0.044856458902359,-0.0157572031021118,0.0598653665787162,-0.030499045882163,0.5662560389686966,0.8214864504470268
16433.71896341667,-0.22247314453125,-0.0238189697265625,-1.037399291992188,16433.71399341667,1.231208540163484,-0.1133833260925838,0.0616901808043196,0.0650078654289245,0.2892939150333405,1.748310804367065,-0.001088373363018,-0.0007879063487052,-0.0038554668426513,0.0578418677950563,-0.0284575541867332,0.5748233802008764,0.8157343287376041
16433.72890141667,-0.1766510009765625,-0.093536376953125,-0.9697265625,16433.72393241667,1.246834698932493,-0.1132289376593619,0.061470221167249,0.2305403798818588,0.0134287178516387,1.401153683662415,-0.1038858294487,0.0702510997653007,-0.0812476873397827,0.0579285811680641,-0.0280063762474214,0.5811906673928902,0.8112196416345078
16433.73884041667,-0.1567535400390625,-0.0415191650390625,-0.9914398193359376,16433.73387141667,1.260295888256265,-0.1143149583998436,0.0622492755881554,0.1996849924325943,-0.0662147104740142,1.274444460868835,-0.0874029770493507,-0.017319731414318,-0.0022407174110412,0.0587479506801142,-0.0278246085864808,0.5865807455133007,0.8072778642077912
16433.74877941667,-0.14166259765625,-0.0139923095703125,-1.000167846679688,16433.74380941667,1.272111508160864,-0.1157604783546227,0.0627049977754658,0.154406726360321,-0.0557948611676693,1.063311696052551,-0.0506489872932434,-0.0052834674715995,0.0216742753982543,0.0595213496373279,-0.0279226049417912,0.5912821741763981,0.8037804228933927
16433.75871741667,-0.1748199462890625,-0.0303192138671875,-0.9677886962890624,16433.75374841667,1.281743549175835,-0.116773281745212,0.0628183841025072,0.0850926265120506,-0.0306205339729785,0.860193133354187,-0.0295347347855567,0.0369134396314621,-0.0116683840751647,0.0600017973517599,-0.0280073045142255,0.5951123369673811,0.8009098581834437
16433.76865641667,-0.18011474609375,-0.0675201416015625,-0.9599456787109376,16433.76368741667,1.28915757093621,-0.1174823830208033,0.0626018305299209,0.0553280711174011,-0.0227863788604736,0.6406362652778625,-0.0385653972625732,0.0437316000461578,0.0044671893119812,0.0602310083008389,-0.02813293877208,0.5980629806016524,0.7986873403724734
16433.77859541667,-0.1670989990234375,-0.1021728515625,-0.94244384765625,16433.77362541667,1.295427174347084,-0.1178903044373232,0.062747983882974,0.1203206479549408,0.0232263877987861,0.623640775680542,-0.0679931044578552,0.0205925554037094,0.0299687981605529,0.0604994572897497,-0.0280624048094103,0.6005466364533699,0.7968036869559123
16433.78853341667,-0.1447296142578125,-0.084625244140625,-0.94140625,16433.78356441667,1.3020248430345,-0.1178926046431737,0.0635446842908252,0.1869470924139023,0.0675818622112274,0.6704146862030029,-0.0529057905077934,-0.030492216348648,0.0372885465621948,0.0609081125039689,-0.0276221424092057,0.6031455496270643,0.7948224684350416
16433.79847241667,-0.1332855224609375,-0.037261962890625,-0.98065185546875,16433.79350341667,1.308968384435426,-0.1177258698413645,0.0650459333312103,0.2830594778060913,0.0377962738275528,0.6610456705093384,-0.0410889610648155,-0.0340447202324867,0.0572776198387146,0.061546453227616,-0.0268873851076584,0.6058567714341803,0.7927336072790457
16433.80841141667,-0.1056671142578125,-0.0097808837890625,-0.97296142578125,16433.80344141667,1.315674209393671,-0.1182421830165659,0.067268287340659,0.2891506850719452,-0.0527898520231246,0.631740927696228,-0.0204377919435501,0.0057856887578964,0.0268434286117553,0.0626692887080424,-0.026205458862856,0.6084210276029953,0.7907020610003064
16433.81834941667,-0.1236419677734375,-0.029937744140625,-0.942169189453125,16433.81338041667,1.322073747849448,-0.1192327550791498,0.0689133964022564,0.1940409541130066,-0.0512793064117431,0.5914286375045776,0.0002293661236763,0.0518148019909858,0.0094643831253051,0.0637021477355117,-0.0258903260689154,0.6108610069128902,0.7887461304661479
16433.82828841667,-0.1330108642578125,-0.0368804931640625,-0.9489898681640624,16433.82331941667,1.327422622613762,-0.1200418908137729,0.0702381816978985,0.2049290239810944,-0.0324283204972744,0.4312725365161896,0.0114415287971496,0.0519156754016876,0.0359336733818054,0.0645388093609758,-0.0256301338457456,0.6128969708289038,0.7871055225551302
16433.83822741667,-0.1287384033203125,-0.0439453125,-0.9395599365234376,16433.83325741667,1.331683911463805,-0.1207931943512374,0.0718388056985888,0.2076808661222458,-0.0763081610202789,0.416781485080719,-0.0138291120529174,0.0334164351224899,0.0447641015052795,0.0654508914110687,-0.0252932449321492,0.6144928237008473,0.7857957569589546
16433.84816541667,-0.126983642578125,-0.04901123046875,-0.949920654296875,16433.84319641667,1.336489837182705,-0.1219735733814687,0.0732595620826979,0.200099378824234,-0.0769647657871246,0.4941332638263702,-0.0059743598103523,0.0353522524237632,0.043969988822937,0.0664304600373207,-0.0251585040777713,0.6162906224973912,0.7843085058673898
16433.85810441667,-0.1332244873046875,-0.0336151123046875,-0.9464111328125,16433.85313541667,1.341371368056135,-0.1229066148353806,0.0747513517460952,0.2242984622716904,-0.0362231880426406,0.4222462773323059,-0.005491554737091,0.0237021446228027,0.0460814833641052,0.0673618436083596,-0.0248977506565496,0.6181190354617324,0.7827970353342484
16433.86804341667,-0.131988525390625,-0.017425537109375,-0.9562530517578124,16433.86307341667,1.34488703356286,-0.1232698039072382,0.0770499250390111,0.2996379435062408,0.027992345392704,0.2011791467666626,-0.006862536072731,0.0385215654969215,0.0399894118309021,0.0684130560385962,-0.024205141426235,0.6193993936095534,0.7817149004162194
16433.87798141667,-0.1194915771484375,-0.026763916015625,-0.9427642822265624,16433.87301241667,1.346351682087213,-0.1225757294666334,0.0801287725410549,0.328876793384552,0.1480982452630997,0.0317195393145084,-0.0154829248785972,0.0532638952136039,0.0394071340560913,0.0694137022074338,-0.0229237636353838,0.6198841116541564,0.7812809593740608
16433.88792041667,-0.119964599609375,-0.042877197265625,-0.9369659423828124,16433.88295141667,1.34665302537578,-0.1203922583038031,0.0828351873376675,0.213939294219017,0.2782451510429382,-0.0369958765804767,-0.0025178343057632,0.0610119849443435,0.0345999002456665,0.0697932556914275,-0.021216225851777,0.619979352140325,0.781219699575694
16433.89785941667,-0.1156005859375,-0.0537872314453125,-0.954345703125,16433.89288941667,1.345861557525013,-0.1172627632814776,0.0847225638062864,0.1606875211000443,0.3344144225120544,-0.1750639975070953,-0.0040614381432533,0.0514028668403625,0.0555036664009094,0.0695497440867185,-0.0194325563932042,0.6197107874990126,0.7815008959303417
16433.90779741667,-0.108001708984375,-0.05828857421875,-0.9694976806640624,16433.90282841667,1.343750486755487,-0.1135086088084245,0.0864136812912432,0.1331267356872559,0.3823792934417725,-0.2729645967483521,-0.0073663741350173,0.0344262942671775,0.0454605221748352,0.0690262084343349,-0.017511161123252,0.6189549798429574,0.782191417945003
16433.91773641667,-0.125030517578125,-0.0789794921875,-0.9766387939453124,16433.91276741667,1.340464265524195,-0.1090709498978022,0.0878976394362851,0.0861118137836456,0.466814786195755,-0.4302620887756348,-0.000864140689373,0.0346686542034149,0.0250864028930664,0.0682056309979881,-0.0154255589763743,0.617768772375835,0.7832444041941763
16433.92767541667,-0.1564788818359375,-0.0973358154296875,-0.9762420654296876,16433.92270541667,1.335145395504329,-0.1037529061583052,0.08891333907643,0.0081879897043108,0.4691648483276367,-0.6745749115943909,-0.0124275982379913,0.022237405180931,0.0167555809020996,0.0669241908610071,-0.0132052317976208,0.6158281375293891,0.784922004166888
16433.9376135,-0.1490325927734375,-0.09063720703125,-1.013656616210938,16433.93264441667,1.326592252949794,-0.0984653359613409,0.0901500714954677,0.0903981700539588,0.4570285677909851,-1.069693684577942,-0.0408715978264808,-0.0010059103369712,0.0170550942420959,0.0657329847771566,-0.0110281914023812,0.612599415146429,0.7875782596733357
16433.9475525,-0.1192474365234375,-0.0657501220703125,-1.027313232421875,16433.9425835,1.314043119375562,-0.0927562604016637,0.0928644355426741,0.2100611925125122,0.4569711685180664,-1.481001377105713,-0.0691832825541496,-0.0017361417412757,-0.0014479160308837,0.0649982804693359,-0.008351840193683,0.6077429924579104,0.7914252726281149
16433.9574915,-0.1156158447265625,-0.0555419921875,-1.045379638671875,16433.9525215,1.297488720341211,-0.086502085460793,0.0969701357550159,0.3127257823944092,0.4940157532691956,-1.90346097946167,-0.0457560271024704,0.0165722742676734,-0.0334284305572509,0.0646765819901876,-0.0051579049859179,0.6012421267375004,0.7964284122082677
16433.9674295,-0.153564453125,-0.0822906494140625,-1.052810668945312,16433.9624605,1.276626624404149,-0.0798748101469686,0.1022498601433992,0.3948001265525818,0.4105272889137268,-2.359764099121094,-0.0317871421575546,0.0477199777960777,-0.0424064397811889,0.0647668858424931,-0.0015985626128592,0.592950075115465,0.8026286627086743
16433.9773685,-0.1484832763671875,-0.1189117431640625,-1.006011962890625,16433.9723995,1.251181625427311,-0.0737074066713874,0.1084716388705007,0.4359864592552185,0.3144875764846802,-2.809396266937256,-0.0635261535644531,0.0402658954262733,-0.0606546998023986,0.0654571528467581,0.0018985209939176,0.58269914688269,0.8100452861924317
16433.9873075,-0.160888671875,-0.1663055419921875,-0.97979736328125,16433.9823375,1.22119858183937,-0.0672977096566995,0.1148072328328859,0.4137083292007446,0.2906879186630249,-3.279170513153076,-0.0896288976073265,0.0179823189973831,-0.0470398664474487,0.0662360611639746,0.0053581081330621,0.5705087764047045,0.8185986230851758
16433.9972455,-0.1948394775390625,-0.160064697265625,-0.9613800048828124,16433.9922765,1.185960466998851,-0.0614748273030825,0.1205762934179524,0.2660283148288727,0.0213840119540691,-3.838257551193237,-0.0886529088020324,-0.0314795821905136,0.003605306148529,0.0670850422744869,0.0082152425705497,0.5560206173286616,0.8284160239057502
16434.0071845,-0.1900482177734375,-0.16326904296875,-0.978057861328125,16434.0022155,1.144261632804976,-0.0576005190329602,0.1250602746066873,0.1510926932096481,-0.2536506950855255,-4.5371994972229,-0.1207831799983978,-0.0370391458272934,0.0235494375228881,0.0680766738194548,0.0096561479244362,0.5386296403432915,0.8397322908196443
16434.0171235,-0.133392333984375,-0.134124755859375,-1.021591186523438,16434.0121535,1.095925725427694,-0.0551840422870163,0.1289698225866562,0.1250064820051193,-0.5169574022293091,-5.113777637481689,-0.1469164341688156,-0.0473212450742721,0.0220151543617248,0.0693267953312014,0.0100570554527292,0.5181512944361809,0.8524152615066144
16434.0270615,-0.049957275390625,-0.1060333251953125,-0.9894866943359376,16434.0220925,1.042846357036791,-0.054735168370714,0.1331100622914102,0.0978483632206916,-0.7497631907463074,-5.470283985137939,-0.1083280146121979,-0.0088842213153839,-0.0080110430717468,0.0712467370436984,0.0094399234838006,0.4952477389677332,0.8657738835347688
16434.0370005,-0.0023040771484375,-0.101593017578125,-1.027297973632812,16434.0320305,0.9872805730107131,-0.0550405638391427,0.1367787666872453,0.0665405094623565,-0.8243002891540527,-5.633752346038818,-0.0456749945878982,0.0199586302042007,-0.0287078619003295,0.0731628505658517,0.0081927096786019,0.470892142833914,0.8791136020970837
16434.0469395,0.0440673828125,-0.0947113037109375,-1.031967163085938,16434.0419695,0.930373121616125,-0.0560440248183106,0.1412286722344104,0.1679172068834305,-0.9335882663726808,-5.674568176269531,0.0429905466735363,0.0303623229265213,0.0036718845367431,0.0755709306481654,0.0066594589805319,0.4455291335835998,0.8920473307214771
16434.0568775,0.07733154296875,-0.1202239990234375,-0.931060791015625,16434.0519085,0.8760243496166983,-0.0568395193395008,0.1444684950189447,-0.1868779063224792,-0.7442521452903748,-5.132175922393799,0.0639075189828872,0.0523527115583419,-0.0744392275810241,0.0773527320926342,0.0049321815773558,0.4210060450661646,0.903740060026968
16434.0668165,-0.0203399658203125,0.118194580078125,-0.9102325439453124,16434.0618475,0.8225428331018181,-0.0543500518575999,0.1440410767082041,-0.4075551629066467,-0.1736889183521271,-5.878002166748047,0.1326791644096375,0.0238688141107559,0.0197378993034362,0.0767679784911046,0.0039151525713919,0.3967992907160781,0.9146811365634862
16434.0767545,-0.075958251953125,-0.2405853271484375,-1.06463623046875,16434.0717855,0.7621447949479426,-0.0456421109372546,0.1412973302346478,-0.8411664962768555,-0.1395421177148819,-5.737605571746826,0.0607660263776779,0.1894268840551376,0.0714921355247497,0.0739747883473202,0.0051173560968001,0.3693965428513614,0.926308609763458
16434.0866935,-0.008636474609375,-0.1476898193359375,-1.0205078125,16434.0817245,0.7098492623620865,-0.0442878786348985,0.1305058087420129,-1.754453420639038,-0.9060601592063904,-4.711050033569336,0.0006229653954505,0.0169612169265747,-0.0007327198982238,0.0688059159752136,0.0019371419766848,0.3453412625418589,0.9359494365566758
16434.0966325,-0.0368499755859375,-0.1480560302734375,-1.023239135742188,16434.0916625,0.6628464081089814,-0.0478311360450532,0.1125605594670517,-2.226082324981689,-0.9521746635437012,-4.531057834625244,-0.0094965249300003,-0.0822265446186065,-0.0706360936164856,0.0609430191171905,-0.0042780418702351,0.3235090683892299,0.9442508282412744
16434.1065705,0.0487060546875,-0.260589599609375,-1.102783203125,16434.1016015,0.6196626006596258,-0.0532847394680989,0.0947644483591776,-1.688878417015076,-1.04435670375824,-3.856810331344604,0.0414391234517097,-0.0372590497136116,-0.0052130818367004,0.0532063568042669,-0.0109061035726997,0.3032460230121074,0.9513632171278312
16434.1165095,0.0634613037109375,-0.1612091064453125,-0.9848480224609376,16434.1115405,0.5835079787492414,-0.059109056848272,0.0837244746174948,-0.972195327281952,-0.7296411991119385,-3.321304321289062,0.0398399867117404,-0.1366949677467346,-0.0867555737495422,0.0485561207613023,-0.016244495818913,0.2860706205898758,0.9568396147268337
16434.1264485,-0.0584716796875,-0.0240478515625,-1.03741455078125,16434.1214785,0.5496503456966386,-0.0617217466559682,0.0792496365534974,-0.2977756559848785,-0.3822439014911652,-3.492625713348389,0.1517752110958099,-0.1458699405193329,-0.0537123680114746,0.046476747551227,-0.0189293227518036,0.2698600525599956,0.9615909971398146
16434.1363865,0.0171966552734375,-0.000579833984375,-1.097946166992188,16434.1314175,0.515875405780334,-0.0627737178109922,0.0807900686119785,0.1133639439940453,-0.3774528801441193,-3.127894878387451,0.0552951991558075,-0.016587845981121,0.0158932209014892,0.047027374061538,-0.0200224126558381,0.253528010831269,0.9659767040417024
16434.1463255,0.0423431396484375,-0.0206451416015625,-1.05682373046875,16434.1413565,0.4885819459231785,-0.0626942030732317,0.0848110068423903,0.3575848639011383,-0.0633906573057174,-2.431115865707397,0.0200390145182609,0.0994340926408767,-0.1033149361610413,0.0486877227715709,-0.0201356155480566,0.2402430351568514,0.9692818627746812
16434.1562645,-0.0080108642578125,-0.0264434814453125,-1.093093872070312,16434.1512945,0.4669976613207805,-0.0608085658453164,0.0923172604202325,0.9596987366676332,0.0214701667428016,-2.099586963653564,0.1212422847747803,0.0881120786070823,-0.0703991055488586,0.0518957770626482,-0.0188715503059958,0.2296649074956357,0.9717019292338344
16434.1662025,-0.0039825439453125,0.0183563232421875,-1.010421752929688,16434.1612335,0.4449151330382862,-0.0576203487400993,0.10558093771846,1.376036524772644,0.2129134088754654,-2.492393493652344,0.0589157231152057,0.0468368977308273,-0.0831313133239746,0.0577909279105603,-0.0164204327555174,0.2187459908200842,0.9739305206434592
16434.1761415,-0.0761260986328125,-0.0108489990234375,-0.947021484375,16434.1711725,0.4184847246609327,-0.052062163354748,0.1206417834649469,1.341247081756592,0.2615752220153809,-2.951955795288086,0.0586336627602577,0.137500211596489,-0.0772780179977417,0.0643461571827669,-0.0128961776852907,0.205735954235695,0.9764045834538292
16434.1860805,-0.05621337890625,-0.0526885986328125,-0.9756011962890624,16434.1811105,0.3882344250878049,-0.045721169092613,0.1348218705936842,1.153891563415527,0.2351182997226715,-3.114848136901855,-0.0013403929769992,0.1331930905580521,0.0291353464126586,0.0704769075415115,-0.0093879735470709,0.1909011530726586,0.9790309689466478
16434.1960185,-0.033660888671875,-0.0819854736328125,-0.9298248291015624,16434.1910495,0.3604853579060302,-0.0397592725995195,0.1443272100948198,0.4785269796848297,0.1778057366609573,-2.452555418014526,-0.0408799387514591,0.1244327425956726,0.0223901867866516,0.0744732322775097,-0.0065825342114916,0.1773563935887197,0.9813027584622096
16434.2059575,-0.0834503173828125,-0.04766845703125,-1.01800537109375,16434.2009885,0.3377691734208101,-0.0350909072703596,0.1478670730257947,0.1869577467441559,0.1009090319275856,-2.192968368530273,0.0046410299837589,0.0648703128099441,0.0400075912475585,0.0757449672350551,-0.0048339638480114,0.166320415048756,0.9831464507008884
16434.2158965,-0.073150634765625,-0.032989501953125,-1.048507690429688,16434.2109265,0.3154829595485703,-0.0309924823518663,0.1511199258654845,0.2834049165248871,0.0658985823392868,-2.208737134933472,-0.0275474153459072,0.0836355835199356,0.0303036570549011,0.0769691439513248,-0.0034027153236148,0.1554658794908497,0.9848323192273212
16434.2258345,-0.0424346923828125,-0.094085693359375,-0.987548828125,16434.2208655,0.2955142968738449,-0.0270622375814558,0.1533692124340999,0.0312008969485759,0.1123992055654526,-1.743163466453552,-0.0643384084105491,0.1247382462024689,-0.0683742761611938,0.0777539148122605,-0.0020665205275158,0.1457487123647541,0.9862593001508416
16434.2357735,-0.0449371337890625,-0.104949951171875,-0.9826507568359376,16434.2308045,0.2800678218000375,-0.0234891766447779,0.1533207957005837,-0.0680479258298873,0.1293430328369141,-1.38884711265564,-0.0272188112139701,0.0876878350973129,-0.0310767292976379,0.0774648450792075,-0.0009064116907779,0.1382665196398261,0.987360536440354
16434.2457125,-0.0356597900390625,-0.1356353759765625,-0.9268341064453124,16434.2407425,0.2663240577368677,-0.0194949986661515,0.1528034469613009,-0.114204503595829,0.2531764209270477,-1.34978449344635,-0.0249686148017644,0.0437042415142059,0.0101178288459777,0.0769384724940307,0.0005005536080221,0.1316378423846434,0.9883074120954368
16434.2556505,-0.0621337890625,-0.1834716796875,-0.8972015380859375,16434.2506815,0.2527836615001292,-0.014848368894599,0.1514718575539887,-0.2149598747491837,0.2477185428142548,-1.338063359260559,-0.0243236608803272,0.0429373532533645,0.0263744592666626,0.0759910902766908,0.0021937658584385,0.1251335116252135,0.9892230290493884
16434.2655895,-0.0414581298828125,-0.19439697265625,-0.9308929443359376,16434.2606205,0.2394643893387476,-0.0109332700733536,0.1487955926396276,-0.3274019956588745,0.1381523162126541,-1.304461479187012,-0.0374818332493305,-0.0193706750869751,0.0828853845596313,0.0744470931772365,0.00346575840524,0.1187107084574127,0.990127952934628
16434.2755285,-0.0187225341796875,-0.182159423828125,-0.9435882568359376,16434.2705585,0.2262401786712658,-0.0079254065984372,0.1459136518177101,-0.2810070812702179,0.0833521783351898,-1.343889474868774,-0.0524921603500843,-0.0458572506904602,0.0840842127799987,0.072871802060639,0.0043010342524803,0.1122908386225446,0.9909903115855828
16434.2854665,-0.0341644287109375,-0.1411895751953125,-0.9789886474609376,16434.2804975,0.211331905682998,-0.0048944071275645,0.1445196179835294,0.0680800825357437,0.1134566068649292,-1.699937462806702,-0.0186399240046739,-0.0458480417728424,0.0434116721153259,0.0720514830317081,0.00518734623355,0.1050181875834802,0.9918431571482909
16434.2954055,-0.000579833984375,-0.1073760986328125,-1.003692626953125,16434.2904365,0.192034006689568,-0.0009027592651987,0.1477197121605879,0.4654466211795807,0.1185730844736099,-2.043349504470825,-0.0202557668089866,-0.024020567536354,0.0467260479927063,0.0734959764844706,0.0066263988944915,0.095574999199878,0.992683096997957
16434.3053445,0.065277099609375,-0.1161346435546875,-0.9749298095703124,16434.3003745,0.172894087375639,0.0036194247336654,0.1515420543117228,0.3026891350746155,0.2431095242500305,-1.740538597106934,-0.0400311946868896,0.0371473878622055,-0.0318832397460937,0.0752599418200125,0.0083335366572803,0.0862280196296329,0.9933938331312048
16434.3152825,0.0539703369140625,-0.1245574951171875,-0.9882049560546876,16434.3103135,0.1566758780585104,0.009966689199937,0.1542002562620151,0.2569019198417664,0.5401294231414795,-1.485711336135864,0.0335477143526077,0.0406443178653717,0.0157345533370971,0.0763977672345527,0.0109809211698199,0.0784070453614416,0.9939291179530924
16434.3252215,0.024566650390625,-0.1920013427734375,-0.9808502197265624,16434.3202525,0.1434125535573217,0.0180825552891637,0.1559103735951156,0.1110547184944153,0.6434910893440247,-1.102883815765381,0.0497036539018154,0.0363829880952835,-0.0018386244773864,0.0770271703710978,0.0145697377575346,0.0721266231689821,0.9943099434577864
16434.3351605,0.0203399658203125,-0.2223358154296875,-0.9620361328125,16434.3301905,0.1347219027718659,0.0254617856772281,0.1559780518569379,-0.0392485037446022,0.5675933957099915,-0.6566575169563293,0.0103114508092403,0.0035976767539978,0.0026766061782836,0.0768727154448889,0.017906768975334,0.0680895784727365,0.994551982604953
16434.3450985,-0.0140533447265625,-0.171417236328125,-0.961181640625,16434.3401295,0.128860413489152,0.0313137209753829,0.1548836698563343,-0.1181273385882378,0.4232701063156128,-0.5772109031677246,-0.007236935198307,-0.0675976574420929,0.0137292146682739,0.0761894528710089,0.0205574593816791,0.0653935226969319,0.9947342292035076
16434.3550375,0.0003662109375,-0.1631927490234375,-0.969329833984375,16434.3500685,0.122032671078148,0.0359456417497684,0.153787253453589,-0.0591239407658577,0.3048491775989532,-0.7748805284500122,-0.031683824956417,-0.0464794784784317,0.0334429144859314,0.0755698805867806,0.0225688840545191,0.0621664693693485,0.994944822191986
16434.3649765,0.04168701171875,-0.183685302734375,-0.9808502197265624,16434.3600065,0.1138267073381149,0.0398839968897367,0.1529929698082406,-0.025822440162301,0.2381833344697952,-0.8445768356323242,-0.0574283264577388,-0.0057300180196762,0.0169981718063354,0.0751520328113531,0.0241963844474042,0.0582264448118121,0.995176552335844
16434.3749145,0.033782958984375,-0.1743621826171875,-1.019302368164062,16434.3699455,0.1052983335951195,0.0431699749668726,0.1531816054930187,0.1474529504776001,0.1552599519491196,-0.8544571399688721,-0.0169249288737773,-0.0208176374435424,0.0191844701766967,0.0752596297333765,0.0255159191803848,0.0541075253749587,0.9953679306504032
16434.3848535,0.0486297607421875,-0.1783599853515625,-0.9708251953125,16434.3798845,0.0966975038401239,0.0457030162294153,0.1545604888538931,0.1675249189138412,0.095355674624443,-0.8185401558876038,-0.0041116140782833,-0.0328217595815658,-0.019574761390686,0.0759919756714904,0.0264849579306183,0.0499350885825547,0.9955050091563992
16434.3947925,0.0557861328125,-0.184783935546875,-0.9525604248046876,16434.3898225,0.0891443969706417,0.0475344558655343,0.1550474088653945,-0.0009282771497964,0.0377469733357429,-0.6744756698608398,-0.0086470060050487,-0.0136486440896987,-0.0166518092155456,0.0762915798323081,0.0271199054947523,0.046249745653768,0.995643047992017
16434.4047305,0.0697174072265625,-0.1800079345703125,-0.9576416015625,16434.3997615,0.0832540239356071,0.0486229132484935,0.1540451736449133,-0.1342234760522842,0.0090958550572395,-0.5014553070068359,0.0058810785412788,-0.0329342186450958,0.0339419245719909,0.0758484518209085,0.0274171729286035,0.0433482241831014,0.9957993503390914
16434.4146695,0.0651702880859375,-0.1695709228515625,-0.980072021484375,16434.4097005,0.0792489229215892,0.0493942998936004,0.1523159431465429,-0.1609991639852524,0.0293963309377431,-0.3156257569789886,0.0139873251318931,-0.0312710106372833,0.033084750175476,0.0750260484241018,0.0276168265215375,0.0413646240905158,0.9959404174234782
16434.4246085,0.04425048828125,-0.15203857421875,-0.984161376953125,16434.4196385,0.0767495863235708,0.0500756223744858,0.1503934436160814,-0.1997271180152893,0.033374398946762,-0.2120222896337509,0.0225470401346683,-0.0277699083089828,0.0155490040779113,0.0740892660541435,0.0278273971190869,0.0401243726360777,0.996055439088388
16434.4345465,0.043914794921875,-0.1504669189453125,-0.9858856201171876,16434.4295775,0.0749530578799007,0.0505662509442885,0.1483021781231274,-0.200344443321228,0.0101580247282981,-0.1702663153409958,0.0031411983072757,-0.0073922276496887,0.0070158243179321,0.073062883239673,0.0279681054495104,0.0392243981173687,0.9961630999747207
16434.4444855,0.05792236328125,-0.1563720703125,-0.988739013671875,16434.4395165,0.0733676366133806,0.0507853483919342,0.1462097550218376,-0.1994754523038864,-0.0072673391550779,-0.1656525135040283,-0.0100302547216415,-0.0073105096817016,0.001421570777893,0.072038404079024,0.0279830066181256,0.0384190678728306,0.996268748582436
16434.4544245,0.0645751953125,-0.1721343994140625,-0.986114501953125,16434.4494545,0.0721114706015145,0.0509554004430987,0.1443435985700324,-0.1669787615537643,0.0057834815233945,-0.0917410105466842,0.0005606710910797,-0.0058306008577346,0.0014997124671936,0.0711229777357251,0.0279906532951275,0.0377781950793135,0.996358823324636
16434.4643625,0.0470123291015625,-0.164947509765625,-0.9771575927734376,16434.4593935,0.0717136263476267,0.0510317324603396,0.1425360955833813,-0.1914545446634293,-0.0082769775763154,-0.019567884504795,0.0134572796523571,-0.0243889391422271,-0.0030221343040466,0.0702264984657831,0.0279838799595167,0.0375620505528922,0.9964307265901812
16434.4743015,0.0367584228515625,-0.148468017578125,-0.984771728515625,16434.4693325,0.0715288599677699,0.0508476450118428,0.14071912093102,-0.1588518619537354,-0.0288573540747165,-0.045278038829565,0.0089875534176826,-0.0301702618598938,0.0104727149009704,0.0693271398077301,0.0278549189401339,0.0374428109387831,0.9965017380399394
16434.4842405,0.0546722412109375,-0.1378173828125,-0.99737548828125,16434.4792705,0.0709100151581617,0.0506665026369553,0.1394983691361238,-0.0816201940178871,-0.0150864794850349,-0.0885410904884338,-0.0125399567186832,-0.0179665684700012,0.0104079246520996,0.0687307723788506,0.027722712583749,0.0371142854766103,0.9965591257251492
16434.4941785,0.05816650390625,-0.1346282958984375,-0.9969635009765624,16434.4892095,0.0700695745427454,0.0508619023808067,0.1388291998933243,-0.0540615357458591,0.0332943685352802,-0.0796874165534973,-0.0054289624094963,-0.0047590434551239,-0.00408136844635,0.0684053511022187,0.0277800985214626,0.0366945584498298,0.996595406494878
16434.5041175,0.0457763671875,-0.13421630859375,-0.995086669921875,16434.4991485,0.069189892822082,0.051359727316693,0.1383494668010475,-0.0369360819458961,0.027612380683422,-0.1197357624769211,0.0085100568830966,0.002517282962799,-0.0112425088882446,0.068169455181133,0.0279902299580182,0.0362676753497874,0.9966212831495992
16434.5140565,0.0402374267578125,-0.1268157958984375,-1.015426635742188,16434.5090865,0.067606312016583,0.0517216448120945,0.1382635993840829,0.0358137562870979,0.0072237513959407,-0.1849544495344162,0.0007204301655292,-0.0012603849172592,-0.0015140771865844,0.0681423758433706,0.0281152248401445,0.035489878939594,0.9966476802600622
16434.5239945,0.0577239990234375,-0.1416015625,-0.99639892578125,16434.5190255,0.0661748595033479,0.0520557736270776,0.1383891336583712,0.0039591561071574,0.0146834664046764,-0.0944913923740387,-0.0083677135407924,0.0109794437885284,-0.0202099680900573,0.0682192331452336,0.0282349112122702,0.0347894138363431,0.9966637733544708
16434.5339335,0.065032958984375,-0.1333465576171875,-1.0084228515625,16434.5289645,0.0654760315977065,0.0522430763561303,0.1383544112831852,0.0073592141270637,0.0093667320907115,-0.0515567064285278,-0.0059897452592849,-0.0003159344196319,-0.0140350461006164,0.0682085676797879,0.0283038793933349,0.0344471427068833,0.9966743713447082
16434.5438725,0.051513671875,-0.1336212158203125,-0.9968414306640624,16434.5389025,0.0651236869238032,0.0523570307972158,0.1385273888087288,0.0153574850410223,-0.0032178033143281,-0.0192891843616962,0.0122245959937572,0.0024493783712387,-0.0144309997558593,0.0682978099431135,0.0283513012274148,0.0342775038956828,0.9966727860299966
16434.5538105,0.0532073974609375,-0.1571044921875,-0.974212646484375,16434.5488415,0.0649768905802494,0.0522019927491572,0.1385575967682915,-0.0323381312191486,-0.0336638614535331,-0.0129934716969728,0.0080751813948154,0.0047986358404159,-0.0170363783836364,0.0683175961935079,0.0282694881778147,0.0341994135190483,0.9966764565810192
16434.5637495,0.06201171875,-0.15673828125,-0.9691619873046876,16434.5587805,0.0651366273612024,0.0517374833157381,0.1378057722223746,-0.1319089233875275,-0.0415666252374649,0.0444718189537525,-0.0023502483963966,-0.006337285041809,0.0036444664001464,0.0679485877961509,0.0280319265865703,0.034254300409542,0.9967064610390878
16434.5736885,0.0570831298828125,-0.14300537109375,-0.9867095947265624,16434.5687185,0.0661114321407314,0.0513718035631468,0.1360730486733281,-0.2246356606483459,-0.0042160563170909,0.1309092342853546,0.0083447955548763,-0.0257692337036132,0.0216911435127258,0.0670776397175011,0.0278557700067967,0.0347074416846421,0.996754762192296
16434.5836265,0.042022705078125,-0.1319732666015625,-1.003570556640625,16434.5786575,0.0677789914670046,0.0512079732185352,0.133772533603927,-0.2400439232587814,0.0086517054587602,0.1656055599451065,0.010062713176012,-0.0154450833797454,0.0118308663368225,0.0659106306553689,0.0277931535755268,0.0355062741473447,0.9968061894414508
16434.5935655,0.0432586669921875,-0.1112518310546875,-1.013092041015625,16434.5885965,0.0692342472197798,0.0510532503982424,0.1318939388755406,-0.1539668291807175,-0.0022459495812654,0.0973761826753616,-0.0014545619487762,-0.0058324933052062,-0.0040870904922485,0.0649567799641376,0.0277331563588612,0.0362047219897925,0.9968453197318188
16434.6035045,0.0504608154296875,-0.107452392578125,-1.027862548828125,16434.5985345,0.0701050066558575,0.0510450812183722,0.1308603943042461,-0.0562653020024299,0.0280511379241943,0.0720155611634254,-0.0095405392348766,0.0096833705902099,-0.018340528011322,0.0644296452744962,0.0277401624773098,0.0366264964436844,0.9968639301482044
16434.6134425,0.043212890625,-0.1168365478515625,-1.014022827148438,16434.6084735,0.0708399958239395,0.0512903248775917,0.1305791340053784,-0.022552877664566,0.0258255340158939,0.0753777995705604,-0.0025220625102519,0.0211842954158783,-0.0342312455177307,0.0642747044083386,0.0278813403886275,0.0369974631416852,0.9968563178325638
16434.6233815,0.04705810546875,-0.1341400146484375,-1.008102416992188,16434.6184125,0.0716658544425311,0.051293972127453,0.130387220750192,-0.0253457333892583,-0.0064270794391632,0.096036747097969,-0.0018708258867263,0.016752079129219,-0.0347253084182739,0.0641674483894782,0.0279064257898638,0.0374069758979019,0.9968473069198848
16434.6333205,0.0554656982421875,-0.1264801025390625,-1.00506591796875,16434.6283505,0.0730515367074817,0.051177579022419,0.130168729983692,-0.0458153262734413,0.0160800945013761,0.1684888452291489,-0.0138267278671264,0.0071512758731842,-0.0174638628959655,0.0640414032645662,0.0278890674924113,0.038091362547699,0.9968299828341598
16434.6432585,0.048187255859375,-0.127777099609375,-1.008346557617188,16434.6382895,0.0747896934357314,0.0511715220546303,0.1298629660888899,-0.0229211933910846,0.032336663454771,0.1732685565948486,0.0068681612610816,-0.0072510242462158,-0.0195297002792358,0.063864849812417,0.0279362486612053,0.0389539501873762,0.9968066134578653
16434.6531975,0.0511932373046875,-0.1360626220703125,-0.984832763671875,16434.6482285,0.0766366073386426,0.0512727001972901,0.1298391581980921,-0.0277588237076997,0.0251637026667594,0.2024437487125397,-3.761425614356995e-05,0.0059700161218643,-0.0162053108215332,0.0638251383744459,0.0280452026280668,0.039877394872855,0.996769614163788
16434.6631365,0.045684814453125,-0.1361236572265625,-0.9821624755859376,16434.6581665,0.0787410003476916,0.051245315529438,0.1296318721047433,-0.0281367283314466,0.0169274136424064,0.1999512910842896,-0.0018734410405159,-0.0026431381702423,-0.0079374313354492,0.0636928345543541,0.0280947975419195,0.0409229117522625,0.9967343367465888
16434.6730745,0.039794921875,-0.1260223388671875,-0.9814300537109376,16434.6681055,0.080380674188303,0.0510870907876966,0.1294692719713532,-0.0300400909036397,-0.0032968986779451,0.1246024742722511,0.001700147986412,-0.0099912732839584,0.0116533637046814,0.0635920384698934,0.0280650297668194,0.0417331608079509,0.9967080231076074
16434.6830135,0.0507049560546875,-0.1250457763671875,-0.9886474609375,16434.6780445,0.081471075707246,0.0507320010893715,0.1291806660823638,-0.0386889725923538,-0.0325945988297462,0.09837007522583,-0.0113778114318847,0.0002205818891525,0.0097553133964538,0.0634403957974284,0.0279171175166597,0.0422620084056764,0.9966994247712354
16434.6929525,0.051910400390625,-0.1216278076171875,-0.996917724609375,16434.6879825,0.0824068967016139,0.0502319528380595,0.128741830704346,-0.0440299436450004,-0.050781063735485,0.0814704522490501,-0.0041562691330909,0.0012197196483612,0.0056862831115722,0.0632192868710859,0.0276889428250835,0.0427075990776438,0.9967008274984828
16434.7028905,0.0498809814453125,-0.1187286376953125,-1.000015258789062,16434.6979215,0.0831325593795805,0.0495722365997839,0.1284506129410806,-0.0140422135591507,-0.0587226077914238,0.066273920238018,0.004551962018013,0.0057679414749145,-0.0025140047073364,0.0630782851057944,0.0273773042851481,0.043045163439637,0.9967039622463906
16434.7128295,0.053466796875,-0.112274169921875,-1.005386352539062,16434.7078605,0.0837340272950521,0.0489741828211227,0.128367743429093,0.0029394316952675,-0.0386327840387821,0.0551352463662624,0.0005204379558563,0.0070132762193679,-0.0091117620468139,0.0630417063770337,0.0270965704005843,0.0433251441665387,0.9967017774128464
16434.7227685,0.0576934814453125,-0.1132354736328125,-1.00396728515625,16434.7177985,0.084246072396651,0.0487276303911731,0.1285607541811698,0.0276192128658294,0.0076361764222383,0.0507615394890308,0.0034819357097148,0.0138270109891891,-0.0106198787689209,0.063136338568034,0.0269937451793781,0.0435746338631445,0.9966876862652276
16434.7327065,0.0414581298828125,-0.1206512451171875,-0.999755859375,16434.7277375,0.0848259468394244,0.0488377313767192,0.1288711132788712,0.0324331410229206,0.0190478228032589,0.0652885511517524,0.0074794366955757,0.015782743692398,-0.0144796967506408,0.0632807728189276,0.0270732349712465,0.0438704348788369,0.9966634761078872
16434.7426455,0.048583984375,-0.1284332275390625,-0.9869537353515624,16434.7376765,0.0853323368965902,0.0488574816264915,0.1291023474488293,0.0019889497198164,-0.0012920713052153,0.0453870147466659,0.003509297966957,0.0105188935995101,-0.0120384693145752,0.0633887255825468,0.0271038365450571,0.0441259066292446,0.99664450235308
16434.7525845,0.0586395263671875,-0.1309356689453125,-0.99072265625,16434.7476145,0.0856745178471248,0.0487618485436909,0.1290086300246097,-0.0198566932231187,-0.0078522358089685,0.0208680890500545,-0.010159995406866,0.0073284208774566,-0.0023324489593505,0.0633394972330322,0.0270650969144389,0.0442923813946328,0.9966413116042148
16434.7625225,0.050384521484375,-0.13232421875,-0.998199462890625,16434.7575535,0.0859503404604983,0.0487281564665044,0.128797781209631,-0.0293042566627264,0.0066745094954967,0.0377314910292625,0.0090676099061965,-0.0027836114168167,0.0032657384872436,0.063231433714285,0.0270526922362781,0.0444264973863376,0.9966424510633471
16434.7724615,0.0446929931640625,-0.1225738525390625,-1.010116577148438,16434.7674925,0.086400524527694,0.0486538171634466,0.1285535457855987,-0.0213459338992834,-0.0062957182526588,0.0469168685376644,0.007476519793272,-0.0037887841463088,-0.0038252472877502,0.063105279973702,0.0270248099667606,0.0446458608067409,0.9966413814489608
16434.7824005,0.04876708984375,-0.115325927734375,-1.015182495117188,16434.7774305,0.0869308172074507,0.0486035592815731,0.1285627660039411,0.0129995224997401,0.0040873792022466,0.0624711886048317,-0.0026359930634498,-2.598762512207031e-05,-0.0129945278167724,0.0631038355763382,0.0270166893538303,0.0449086279981864,0.9966298934605584
16434.7923385,0.0426025390625,-0.1172637939453125,-1.012863159179688,16434.7873695,0.0875937092206387,0.048480780043594,0.1287680664424286,0.0226838421076536,-0.014199748635292,0.0587731227278709,0.0012100450694561,0.0108740478754043,-0.0235739946365356,0.0631999690237358,0.0269807442594986,0.0452372710289576,0.9966099481674212
16434.8022775,0.03887939453125,-0.125244140625,-1.004745483398438,16434.7973085,0.0880412975701373,0.0482063203172448,0.1290089389789323,0.0240298043936491,-0.0235051643103361,0.0410617738962173,-0.0030942298471927,0.0122725963592529,-0.0229966640472412,0.0633202085261013,0.0268632235449453,0.0454541839446304,0.9965956517147072
16434.8122165,0.0452423095703125,-0.133392333984375,-0.9983367919921876,16434.8072465,0.0885596231818609,0.0478958503931876,0.1291837948716792,0.0084561696276068,-0.0267954990267753,0.0706614777445793,-0.0081872232258319,0.0103402584791183,-0.0202120542526245,0.0634074800749033,0.0267286532727222,0.0457044705999318,0.9965822926701235
16434.8221545,0.0482330322265625,-0.1244049072265625,-1.008987426757812,16434.8171855,0.0893493355636075,0.0475463587509425,0.1292397888956608,-0.0017988639883697,-0.0274405516684055,0.0749892443418502,-0.0057502426207065,-0.0034897029399871,-0.0120239853858947,0.0634328797669555,0.0265807463412931,0.0460874769019545,0.9965670033374324
16434.8320935,0.046356201171875,-0.1274261474609375,-0.9965057373046876,16434.8271245,0.0902741522003363,0.0471427191868555,0.1290809839223051,-0.0349914394319057,-0.0225030519068241,0.0992775410413742,0.0009810142219066,0.0005032122135162,-0.0112063884735107,0.0633508421934413,0.026405502284308,0.0465338634852979,0.9965560222472296
16434.8420325,0.0489349365234375,-0.1383056640625,-0.978729248046875,16434.8370625,0.0912750867253472,0.0468841460047527,0.1286552359992392,-0.0569779649376869,-0.0191956050693988,0.0988557040691375,0.0006089769303798,0.0034989714622497,-0.016083538532257,0.063131528657147,0.0262989958280908,0.0470200605170573,0.9965499885203272
16434.8519705,0.0460357666015625,-0.14373779296875,-0.98468017578125,16434.8470015,0.0922125169030024,0.0465193594656484,0.1282485007555043,-0.0274003650993108,-0.0383296161890029,0.0831726044416427,0.0007695704698562,-0.00636488199234,0.0051493048667907,0.0629251651375357,0.0261377760128833,0.0474715277869559,0.996545850636768
16434.8619095,0.04058837890625,-0.144683837890625,-0.9732818603515624,16434.8569405,0.0930436328586435,0.0458799144398861,0.1280281603604767,-0.0323067083954811,-0.0656705647706985,0.0816412940621376,0.0020579248666763,-0.011710375547409,0.0088382959365844,0.0628197996076046,0.0258403589247759,0.0478633363207789,0.9965415364540744
16434.8718485,0.038177490234375,-0.14801025390625,-0.9691925048828124,16434.8668785,0.0939375749899032,0.0451292777144356,0.1275160231689397,-0.0658566802740097,-0.0601405091583728,0.0882677659392356,0.0008150599896907,-0.0189474523067474,0.0120654106140136,0.0625711538528141,0.0254827943140278,0.04828018852286,0.9965462720885838
16434.8817865,0.04742431640625,-0.1325225830078125,-0.986328125,16434.8768175,0.0946054980274135,0.0444318615494042,0.126993922303945,-0.0354487039148807,-0.0587707757949829,0.0383529365062713,-0.0085218474268913,-0.0194653421640396,0.0229963064193725,0.0623194037264386,0.0251442419732455,0.0485861785111187,0.9965557804746978
16434.8917255,0.04046630859375,-0.1212615966796875,-0.996612548828125,16434.8867565,0.0947263976629937,0.0437167215232541,0.1267043599700259,-0.0236082896590232,-0.0815450698137283,-0.0179228484630584,0.0020576789975166,-0.0145951062440872,0.0149007439613342,0.0621909686723552,0.0247850298740934,0.0486214116704475,0.9965711246931904
16434.9016645,0.0489044189453125,-0.1161346435546875,-1.003097534179688,16434.8966945,0.0943933612247098,0.042815256161143,0.1265488323602969,-0.0125292725861072,-0.0943052321672439,-0.0412477478384971,0.0007987543940544,0.0029202997684478,-0.0021308064460754,0.0621394258702664,0.0243219276679936,0.0484260028411779,0.996595171860544
16434.9116025,0.0563201904296875,-0.111846923828125,-1.008712768554688,16434.9066335,0.0941868664165895,0.0421668659968651,0.1263750604583322,-0.0208103712648153,-0.0421376377344131,0.0024541947059333,0.0006927698850631,0.0048078596591949,-0.0089632868766784,0.0620709947266687,0.0239884508455113,0.0483013883410136,0.9966136071464996
16434.9215415,0.0501556396484375,-0.116851806640625,-0.9979095458984376,16434.9165725,0.0945102487140173,0.0418288319239863,0.126070407710035,-0.0426972955465316,-0.0224444940686225,0.0540548041462898,0.0139351487159729,0.0144543498754501,-0.0161740779876709,0.0619234722930433,0.0238230625692384,0.0484493154181708,0.9966196264112824
16434.9314805,0.0437469482421875,-0.1199951171875,-0.9905548095703124,16434.9265105,0.0951040011880145,0.0415500931377257,0.1255527154609216,-0.063454769551754,-0.0181498806923627,0.0557003691792488,0.0126676000654697,0.0081271529197692,-0.0121608972549438,0.0616651880224566,0.0236906095045111,0.0487319694968094,0.9966250094001792
16434.94141854167,0.042022705078125,-0.12799072265625,-0.9856414794921876,16434.93644954167,0.0956324267270297,0.0414273311301807,0.1251324763715599,-0.0336872898042202,0.0083356220275163,0.0487160980701446,0.0027620829641819,0.0074050351977348,-0.0017883777618408,0.0614524979043013,0.0236359789308196,0.0489877940299944,0.9966269092371072
16434.95135754167,0.0304718017578125,-0.1282958984375,-0.9840545654296876,16434.94638854167,0.0960838118123086,0.0414914077944843,0.1248151703794153,-0.0495626591145992,0.0032809413969516,0.0371625050902366,0.0043296180665493,-0.0013021305203437,0.0015748739242553,0.0612874531532937,0.0236743825726752,0.049211891354754,0.9966250444985604
16434.96129654167,0.030364990234375,-0.12945556640625,-0.9863128662109376,16434.95632654167,0.0963545944429495,0.0413379914015389,0.1242323233411192,-0.0799573138356208,-0.023003626614809,0.0137071162462234,-0.0036389604210853,-0.0040777325630187,0.0087946057319641,0.0609975520964863,0.0235925997348166,0.0493369902540256,0.9966386340725792
16434.97123454167,0.03973388671875,-0.12060546875,-1.001983642578125,16434.96626554167,0.096453040003427,0.041089116125805,0.1234606180787244,-0.0762246325612068,-0.0199529752135276,-0.0005200235173106,-0.0124903656542301,-0.0041721388697624,0.0069164037704467,0.060617929799201,0.0234535122828461,0.0493717071729535,0.9966633274645016
16434.98117354167,0.0569610595703125,-0.1247406005859375,-1.005996704101562,16434.97620454167,0.0966750655881929,0.041005428197119,0.1228954668072509,-0.0378301031887531,0.0030828695744276,0.0428688637912273,-0.0073137953877449,-0.0027646273374557,0.0007635951042175,0.0603357250168502,0.0234052671769451,0.0494748751243712,0.9966765173625244
16434.99111254167,0.043701171875,-0.120391845703125,-0.9894256591796876,16434.98614254167,0.0973473980785093,0.0409723095685144,0.1224884875716136,-0.0616579353809356,-0.0035619838163256,0.0870192795991897,0.0104934945702552,-0.0001015290617942,-0.0163361430168151,0.0601258451166708,0.0233994214236399,0.049805376135176,0.9966728270025822
16435.00105054167,0.0483856201171875,-0.11767578125,-0.9963531494140624,16434.99608154167,0.0982169799478929,0.0406799387207683,0.1217785794718117,-0.0641232281923294,-0.0314008742570877,0.0694924890995025,0.0118327736854553,-0.0028660893440246,-0.0069453120231628,0.059769196210103,0.0232629175646991,0.0502237939838709,0.9966764626915132
16435.01098954167,0.0439910888671875,-0.1216583251953125,-0.99224853515625,16435.00602054167,0.098771792207439,0.0402977561063014,0.1213341475615069,-0.035691849887371,-0.0398191250860691,0.0442102961242198,0.0040614493191242,0.0038033574819564,0.0022333860397338,0.0595508825447501,0.023078365488586,0.0504850547641258,0.9966806822332952
16435.02092854167,0.032012939453125,-0.1307830810546875,-0.9805450439453124,16435.01595854167,0.0992104005165564,0.0396220661974876,0.1210769745629516,-0.0188990216702222,-0.0941142886877059,0.0368920639157295,0.0088960565626621,0.0044941157102584,-0.0051245093345642,0.0594347693837217,0.0227484936652253,0.0506813543276404,0.996685270222374
16435.03086654167,0.029541015625,-0.1219482421875,-0.9812469482421876,16435.02589754167,0.0995353765098652,0.0383999417081193,0.1207878607281727,-0.0436871945858001,-0.1376721560955048,0.0299337562173605,0.0013636834919452,-0.0077710300683975,0.005608320236206,0.0593180408575274,0.0221421091439807,0.0508046517455644,0.9966994778594294
16435.04080554167,0.0308074951171875,-0.107421875,-0.9981689453125,16435.03583654167,0.0997535148483846,0.0370437860138112,0.1203731113708287,-0.0358313992619514,-0.1272662132978439,-0.0010352116078138,-0.0079892575740814,-0.0080912187695503,0.0143148899078369,0.0591434171220006,0.0214626497094093,0.0508699208866026,0.996721412883998
16435.05074454167,0.0248260498046875,-0.1218414306640625,-0.9965362548828124,16435.04577454167,0.0998053605718356,0.0357465613824708,0.1200153754071189,-0.0439098328351974,-0.1296127289533615,0.0247702859342098,-0.0037588588893413,0.004813514649868,0.0033877491950988,0.0589975587912759,0.0208089817296368,0.0508547385903719,0.9967446439219644
16435.06068254167,0.0234832763671875,-0.119049072265625,-0.9885406494140624,16435.05571354167,0.100318080740483,0.0342727888872959,0.1194541398084637,-0.0823048949241638,-0.1588703393936157,0.0628225952386856,-0.0050302036106586,0.0075369328260421,-0.0073735117912292,0.0587501284829216,0.0200758652779316,0.0510628220662669,0.9967637273321096
16435.07062154167,0.0247802734375,-0.11737060546875,-0.9896240234375,16435.06565254167,0.1009229647582394,0.032664217608873,0.1184706668703367,-0.1122803688049316,-0.1466301828622818,0.0480891913175582,-0.009510800242424,-0.0056618750095367,0.0002886056900024,0.0582951467714471,0.0192676772701016,0.0513104881503082,0.9967936554880176
16435.08056054167,0.0256805419921875,-0.1147613525390625,-0.9972381591796876,16435.07559054167,0.1012748793105733,0.0314848722755474,0.1174279911243561,-0.0988505780696868,-0.0941398590803146,0.0148123279213905,-0.0054755359888076,-0.0019518285989761,0.0045381784439086,0.057802379111466,0.0186642980093434,0.0514448700233487,0.99682693446595
16435.09049854167,0.031890869140625,-0.113250732421875,-0.997955322265625,16435.08552954167,0.101476422571604,0.0307023840016055,0.1164760657433851,-0.0987927913665771,-0.0683327615261077,0.0302847605198621,-0.0071283690631389,0.002199187874794,-0.0025440454483032,0.05734615712002,0.0182564521578648,0.0515168299177395,0.9968571176265724
16435.10043754167,0.0337982177734375,-0.1105804443359375,-1.0009765625,16435.09546854167,0.1018798753089244,0.0301160441461876,0.1154308046621693,-0.1148439273238182,-0.0467271953821182,0.0464189872145652,-0.0007057972252368,0.0004132688045501,-0.0048468708992004,0.0568365959596032,0.017949666880087,0.0516948064676011,0.9968826054106562
16435.11037654167,0.02899169921875,-0.109771728515625,-0.99957275390625,16435.10540654167,0.1023815814518613,0.0297152427639267,0.1143184138716132,-0.1127791777253151,-0.0303908344358205,0.0375583842396736,0.0027553886175155,0.00153598934412,-0.0064164996147155,0.0562879873691264,0.0177362148742509,0.0519268814075416,0.9969054702470695
16435.12031454167,0.0303497314453125,-0.1116943359375,-0.9984893798828124,16435.11534554167,0.1027096964786892,0.0294802302691333,0.113270558764603,-0.1025345325469971,-0.0065565425902605,0.0207820702344179,0.0016272235661745,0.0049962475895881,-0.0081827640533447,0.0557688365232078,0.0176018958143614,0.0520776408721281,0.9969292552954564
16435.13025354167,0.0291290283203125,-0.116668701171875,-1.005859375,16435.12528454167,0.1030751317998827,0.0295065152187859,0.1123895388086717,-0.0789716839790344,0.0106520056724548,0.0513000302016735,0.0004690438508987,0.0038309246301651,-0.0030489563941955,0.055325737714873,0.0176028998229346,0.0522553305082697,0.9969446020596484
16435.14019254167,0.0312652587890625,-0.112091064453125,-1.003311157226562,16435.13522254167,0.1037266388799257,0.0294739588650031,0.1116397938705219,-0.0823485702276229,-0.0017688106745481,0.0737349018454551,0.0030623879283666,-0.0052911937236785,-0.0101205706596374,0.0549471010553948,0.0175856018927151,0.0525747664362934,0.9969490264487488
16435.15013054167,0.0298309326171875,-0.109619140625,-0.999114990234375,16435.14516154167,0.1044809173793517,0.0294702576730527,0.110857002989924,-0.0738016888499259,0.0172016825526952,0.0663976222276687,-0.004016576334834,-0.0041770562529563,-0.0114374160766601,0.0545503310698692,0.0175843948536266,0.0529460349864637,0.9969511977623128
16435.16006954167,0.021728515625,-0.109710693359375,-0.9981231689453124,16435.15510054167,0.1048451544152647,0.0294808373107495,0.1103257970871439,-0.0428578853607177,-0.0143750179558992,0.0025470061227679,0.0056910328567028,-0.0009055808186531,-0.0086630582809448,0.0542820312250651,0.0175859243776211,0.0531247512161451,0.9969563117772364
16435.17000854167,0.0375213623046875,-0.1081390380859375,-1.00238037109375,16435.16503854167,0.1048513954298437,0.0291761733406822,0.1099423078728545,-0.0356966443359851,-0.0344291552901268,0.0062578548677265,-0.0075420625507831,-2.027302980422974e-05,-0.0049957036972045,0.0540988925299265,0.0174243485908458,0.0531173591628135,0.9969694517194272
16435.17994654167,0.0331573486328125,-0.1068572998046875,-1.004165649414062,16435.17497754167,0.105046653088108,0.02897364336769,0.1096325583067165,-0.0313032269477844,-0.0017449762672185,0.0265676528215408,0.0010199956595897,-0.001350499689579,-0.0055815577507019,0.0539481614915431,0.0173206778172343,0.0532074227804726,0.996974616872445
16435.18988554167,0.0275421142578125,-0.1083984375,-1.000717163085938,16435.18491654167,0.105348101309975,0.0289152889605482,0.1093169100162526,-0.0304448883980512,-0.0065714232623577,0.0344053357839584,0.009255688637495,0.0033101066946983,-0.010641872882843,0.0537897470822085,0.017291548503541,0.0533542951132711,0.9969758446315063
16435.19982454167,0.0254058837890625,-0.103240966796875,-1.000839233398438,16435.19485454167,0.1056173358893227,0.0288168883573207,0.1090888529018094,-0.0196878500282764,-0.0108177997171878,0.0183290317654609,-8.940696716308594e-07,0.0003063157200813,-0.0077455639839172,0.0536763531482349,0.0172438164542061,0.0534845439702912,0.996975889601136
16435.20976254167,0.026397705078125,-0.102874755859375,-0.99639892578125,16435.20479354167,0.1058260635526294,0.0286206066172125,0.1087547906941242,-0.0492084585130214,-0.02163902297616,0.0182842910289764,-0.0015464015305042,0.0018205493688583,-0.0086343884468078,0.0535132752857716,0.0171428858439293,0.0535814246225557,0.996981137903858
16435.21970154167,0.0232696533203125,-0.1048583984375,-1.00390625,16435.21473254167,0.1060105170512455,0.0284657597746055,0.1082139041414765,-0.0622145384550094,-0.0063910596072673,0.017055906355381,-0.0036982726305723,0.0044719204306602,-0.0029867887496948,0.0532461978212421,0.017056533752864,0.0536661665308683,0.996992391849533
16435.22964054167,0.0261383056640625,-0.1070098876953125,-0.9955596923828124,16435.22467054167,0.1063422887010417,0.0284270446687252,0.1075155562172663,-0.0857851132750511,0.0083431452512741,0.0421087965369224,-0.0026090815663337,0.0054103285074234,-0.0074424147605896,0.0528962549907797,0.0170278049674797,0.0538265713740949,0.9970029052933432
16435.23957854167,0.028564453125,-0.10369873046875,-0.9966888427734376,16435.23460954167,0.1067280440969089,0.0284971795853367,0.106611711620245,-0.0920762941241264,0.0109681580215692,0.0205987095832824,-0.003337662667036,-0.0014545321464538,-0.0058982372283935,0.0524404757797205,0.0170492476818913,0.054015599790626,0.9970162836672726
16435.24951754167,0.02960205078125,-0.106170654296875,-1.00128173828125,16435.24454854167,0.1066933460225126,0.0285594874684211,0.1059908762810674,-0.0281843971461057,0.0083127189427614,-0.0267512276768684,-0.0010363608598709,0.0012545511126518,-0.00156170129776,0.0521295690148672,0.017063106798913,0.053996394487588,0.997033409067714
16435.25945654167,0.020782470703125,-0.1083221435546875,-0.9976959228515624,16435.25448654167,0.1063954671319711,0.0287408109028683,0.1059369923030753,0.0102125247940421,0.0162666477262973,-0.0265637412667274,-0.0007742494344711,0.0013077780604362,-0.0078935623168945,0.0521003618945481,0.0171443253521555,0.0538523107881251,0.9970413612229284
16435.26939454167,0.0252838134765625,-0.107940673828125,-0.9966278076171876,16435.26442554167,0.1061691191343895,0.0287466188439284,0.1060041688457569,0.0056657097302377,-0.0218426529318094,-0.0219985507428646,-0.0014664661139249,-0.0028368458151817,-0.0077787637710571,0.0521356331468989,0.0171430762008808,0.0537400047655677,0.9970456864127062
16435.27933354167,0.031585693359375,-0.1053924560546875,-0.9973602294921876,16435.27436454167,0.1059284196283043,0.0286404731283674,0.1062512124464999,0.042663674801588,-0.00167753174901,-0.0224891044199466,-0.0112784206867218,-0.002514898777008,4.112720489501953e-05,0.052263708709799,0.0170903206613604,0.0536186598169378,0.9970464240917686
16435.28927254167,0.0241546630859375,-0.1005706787109375,-0.99755859375,16435.28430254167,0.1056334577334826,0.028603389949925,0.1066575006804168,0.0436535701155662,-0.0154002681374549,-0.039544254541397,0.0049950201064348,-0.0007223561406135,-0.0071878433227539,0.052469785154511,0.0170746812222343,0.0534729757668149,0.997043611539568
16435.29921054167,0.02783203125,-0.1021270751953125,-1.002059936523438,16435.29424154167,0.1052541526767735,0.028400217243956,0.1069815347286076,0.0223839692771434,-0.0313339605927467,-0.0339169949293136,-0.0007529873400926,0.0042232424020767,-0.0007621645927429,0.0526399859607064,0.0169718290438098,0.0532803899053383,0.9970467323907588
16435.30914954167,0.029693603515625,-0.10430908203125,-0.9967193603515624,16435.30418054167,0.1051032124377587,0.0281567732887402,0.1070320832975793,-0.007006409112364,-0.0241000168025493,0.0073492187075316,-0.0020062420517206,0.0051890313625335,-0.0076271891593933,0.0526729429505014,0.0168477991016126,0.0531990169016777,0.997051466930894
16435.31908854167,0.02630615234375,-0.0999298095703125,-0.9985198974609376,16435.31411854167,0.1052936968759415,0.0280215355700458,0.1069328875260353,-0.0122871920466423,0.0015523508191108,0.0270584728568792,0.0012254081666469,0.0043122023344039,-0.0059801340103149,0.0526254866040106,0.0167828278284616,0.0532898633636384,0.997050209764564
16435.32902654167,0.0272369384765625,-0.0975494384765625,-1.002838134765625,16435.32405754167,0.1055045268677659,0.028029610062808,0.1068177173234209,-0.0060082566924393,0.005715936422348,0.0119879115372896,0.0004998743534088,0.0019546523690223,-0.002839982509613,0.0525660850545528,0.0167894132317615,0.0533945402207699,0.9970475729487448
16435.33896554167,0.0232696533203125,-0.1095123291015625,-0.9955902099609376,16435.33399654167,0.1056036233203148,0.0280545120174487,0.1068653800909932,0.0088673625141382,0.0010664910078048,0.0118743292987346,2.242624759674072e-06,0.0119049996137619,-0.0055618286132812,0.0525883499234591,0.016805669712869,0.0534448621503654,0.997043440085568
16435.34890454167,0.0204925537109375,-0.1114501953125,-0.9929656982421876,16435.34393454167,0.1056489897561329,0.0281108146397791,0.1069855720511854,0.0108013497665524,0.0117106139659881,-0.0002571693621575,-0.0028609726577997,-0.000121496617794,-0.0080634355545043,0.0526463878397159,0.0168380544114577,0.0534696329828054,0.9970384740239278
16435.35884254167,0.0186004638671875,-0.1117401123046875,-0.98858642578125,16435.35387354167,0.1056933168385436,0.0281592379666817,0.1070347378890453,-0.0034755910746753,-0.0049721933901309,0.0089529734104871,-0.0043280199170112,-0.0027123838663101,-0.0007000565528869,0.052669230434361,0.0168646387409487,0.0534932800373758,0.9970355710477196
16435.36878154167,0.0255889892578125,-0.1027984619140625,-0.9944305419921876,16435.36381254167,0.1057106352624684,0.0280057049374144,0.1069614492102555,-0.0112858433276414,-0.0218031052500009,-0.0083128316327929,-0.0093178581446409,-0.0064473524689674,0.0034930109977722,0.052636651815619,0.0167866498635607,0.0534974610787432,0.9970384010250816
16435.37872054167,0.0256195068359375,-0.113861083984375,-0.988433837890625,16435.37375054167,0.1056226607177596,0.0278228002513261,0.1068189218447993,-0.0094280205667018,-0.0161856673657894,-0.0086290827021002,-0.0074732843786478,0.0021389573812484,0.0034675002098083,0.0525712201946794,0.0166894497431234,0.0534480028347347,0.9970461290392773
16435.38865854167,0.02154541015625,-0.1149749755859375,-0.982574462890625,16435.38368954167,0.1055823960528573,0.0276049430921341,0.1066460941593089,-0.0274773295968771,-0.0290359519422054,0.0041253282688558,0.0013944767415523,0.0003191530704498,-0.000582218170166,0.0524912071957978,0.0165752938049922,0.0534212540124028,0.9970537364735468
16435.39859754167,0.023956298828125,-0.1081695556640625,-0.985809326171875,16435.39362854167,0.1056213921410394,0.0272303752730226,0.1063477333957726,-0.0276973079890012,-0.0477014482021331,-7.660733535885811e-05,-0.0050242487341165,-0.0094074457883834,0.011300504207611,0.0523521363059905,0.0163818293052291,0.05342925433158,0.997063860181282
16435.40853654167,0.034332275390625,-0.1041717529296875,-0.9935150146484376,16435.40356654167,0.1056642302688709,0.0267866969014456,0.1060156145025496,-0.0317599587142467,-0.0307730659842491,0.0059613115154206,-0.004752030596137,-0.006884291768074,0.0098675489425659,0.0521980564006585,0.0161531246211414,0.0534372433399536,0.9970752356241964
16435.41847454167,0.0267791748046875,-0.1092071533203125,-0.9886932373046876,16435.41350554167,0.1057313734746421,0.0266633662402164,0.1057918167454608,-0.0185123309493064,0.0058183018118143,0.0102340877056121,0.002770448103547,0.0013465285301208,0.0044775605201721,0.0520892337166082,0.0160875680210675,0.0534663260158356,0.997080375641948
16435.42841354167,0.0167999267578125,-0.1099090576171875,-0.9869384765625,16435.42344454167,0.1059031431581513,0.0266490269384839,0.1055273233695585,-0.0399795398116111,-0.0075497003272175,0.0187197178602218,0.0067512430250644,-0.0011137574911117,0.0013777613639831,0.0519563652244057,0.0160779967396803,0.053550198585455,0.9970829668114009
16435.43835254167,0.0256195068359375,-0.1090850830078125,-0.9942169189453124,16435.43338254167,0.1060730107733752,0.0265193342887775,0.1050366838246554,-0.0583380386233329,-0.0109875425696373,0.0152018144726753,-0.0059538409113883,-0.0058894008398056,0.0079787969589233,0.0517138529097683,0.0160049372774728,0.05362895419301,0.9970925453268308
16435.44829054167,0.0305633544921875,-0.1055145263671875,-0.997100830078125,16435.44332154167,0.1062140908933696,0.0264547685607893,0.1044506650988458,-0.0629762038588523,0.0046281684190034,0.0120635461062192,-0.0059523079544305,-0.0050684064626693,0.0034335851669311,0.0514222754423949,0.015961067290686,0.0536945670491433,0.9971048294836756
