acc_t,acc_x,acc_y,acc_z,gyr_t,yaw,roll,pitch,gyr_x,gyr_y,gyr_z,acc_x_2,acc_y_2,acc_z_2,quat_x,quat_y,quat_z,quat_w
15879.46700466667,0.0136871337890625,0.03802490234375,-1.001708984375,15879.46203466667,-0.0146832175251672,0.0138521468962291,-0.0391394560217934,0.0600990206003189,0.0388969294726848,-0.0175053626298904,0.0006700055673718,0.000543363392353,-0.0086589455604553,-0.0195166438190498,0.0070681644553996,-0.0074754887873907,0.9997566242619722
15879.47694366667,0.01824951171875,0.02618408203125,-0.9993896484375,15879.47197466667,-0.0147930861007163,0.0142649851845525,-0.0386357583099676,0.0347233563661575,0.0430875159800052,0.0086645875126123,-0.0005667302757501,-0.0006012693047523,-0.0025569200515747,-0.0192629121102476,0.0072737776286552,-0.0075326782278065,0.9997596594146304
15879.48688366667,0.018798828125,0.029876708984375,-1.00213623046875,15879.48191366667,-0.0143577916823326,0.0147007698694553,-0.0384983698476756,-0.004372114315629,0.0354490391910076,0.0710467398166656,0.0035601574927568,-0.0123048052191734,-0.0002385973930358,-0.0191942228261476,0.0074869418950428,-0.0073187853980204,0.9997609791735058
15879.49682366667,0.0135650634765625,0.03680419921875,-1.002517700195312,15879.49185366667,-0.0135966377064652,0.0151576483396895,-0.0384479930061522,0.0201894212514162,0.0582174360752105,0.078651525080204,0.0036529535427689,-0.0085618421435356,-0.0029900074005126,-0.0191703043938507,0.0077078546408653,-0.0069424970865789,0.9997623613442724
15879.50676366667,-0.021484375,0.0407562255859375,-1.005126953125,15879.50179366667,-0.0119217024954339,0.0160031122716435,-0.037971383413297,0.0654234811663627,0.0573343336582183,0.506106436252594,-0.0024258382618427,-0.0011580884456634,-0.003366470336914,-0.0189359196085307,0.0081130464460338,-0.0061114525777501,0.999769094105218
15879.51670266667,0.030029296875,0.0333251953125,-0.9954071044921876,15879.51173366667,-0.0107564048792708,0.0169713598112861,-0.0377931240594886,0.0046386909671127,0.1585732400417328,-0.025730937719345,-0.038442812860012,0.0029720664024353,-0.0059849023818969,-0.0188488562075061,0.0085855602542049,-0.0055373594600273,0.9997700879006548
15879.52664266667,0.0249176025390625,0.0242919921875,-0.99908447265625,15879.52167266667,-0.0103673296132261,0.0183529052794812,-0.0378602738132639,-0.0373652204871177,0.1288033574819565,0.0730616897344589,0.0116905663162469,-0.0045260600745677,0.003708004951477,-0.0188803978972445,0.0092726740795206,-0.0053561913244539,0.9997643432228444
15879.53658266667,0.023223876953125,0.0330963134765625,-1.00396728515625,15879.53161266667,-0.0094986388987429,0.019658429043454,-0.0386070473942701,-0.1053141802549362,0.1332126408815384,0.0935607030987739,0.0052750799804925,-0.0143054910004138,-2.270936965942383e-05,-0.0192545028648513,0.0099187826127081,-0.0049379090342221,0.9997531908826224
15879.54652266667,0.029876708984375,0.044952392578125,-1.0225830078125,15879.54155266667,-0.0084586773401109,0.0204965453022868,-0.0393492970803816,-0.0312559232115745,0.0120071284472942,0.0997371077537536,0.002744622528553,-0.0062428563833236,-0.0049512386322021,-0.019628837361268,0.0103292196776647,-0.0044298986118454,0.9997440965460106
15879.55646166667,0.0121307373046875,0.0487518310546875,-1.006378173828125,15879.55149166667,-0.0079380020052102,0.0200204121486965,-0.0391316069091162,0.0608596205711364,-0.0780619084835052,-0.0092327864840626,0.0098729524761438,0.0058307461440563,-0.0235487818717956,-0.0195236987568289,0.010085691801901,-0.0041638725237156,0.9997498467071788
15879.56640166667,0.0123443603515625,0.0366058349609375,-0.9954986572265624,15879.56143166667,-0.0085107084952986,0.0195273194626246,-0.0384046009673305,0.0753645226359367,-0.0068223541602492,-0.0917260646820068,-0.0073809493333101,0.0103566460311412,-0.0073060393333435,-0.0191584927862096,0.0098433200764445,-0.0044418228347812,0.9997580954463908
15879.57634166667,0.01873779296875,0.031890869140625,-0.99639892578125,15879.57137166667,-0.0095020029305624,0.019752387931512,-0.0376587107249366,0.0734864622354507,0.0612062998116016,-0.0978697165846824,-0.0073927491903305,-0.0010440051555633,0.0035974383354187,-0.018780199213391,0.0099636194518665,-0.0049358559234963,0.9997618188252984
15879.58628066667,0.0215301513671875,0.033172607421875,-1.001327514648438,15879.58131166667,-0.0104857404281828,0.0205455774983871,-0.0369587771576727,0.0714318305253982,0.1003350615501404,-0.096489131450653,-0.0017923191189765,-0.0050595253705978,0.002707302570343,-0.0184232586024927,0.0103675864855662,-0.0054314923008331,0.999761812329934
15879.59622066667,0.0282135009765625,0.0321044921875,-1.011215209960938,15879.59125066667,-0.0114198063461998,0.0213341341931955,-0.0361992707622073,0.088426798582077,0.0647847577929496,-0.0888736844062805,0.000211602076888,-0.0030187889933586,-0.0022100210189819,-0.0180364249582633,0.0107682782153406,-0.0059016644133002,0.999761981418897
15879.60616066667,0.0279998779296875,0.030517578125,-1.010269165039062,15879.60119066667,-0.012304505046863,0.0215234274943162,-0.0352610701789452,0.10366540402174,-0.0231602806597948,-0.0840408504009246,0.006705105304718,-0.0031492970883846,-0.0120682716369628,-0.017562071144222,0.0108680852675489,-0.0063406193336664,0.9997665601946774
15879.61610066667,0.0242156982421875,0.0301971435546875,-1.002639770507812,15879.61113066667,-0.0131578658070113,0.0210266096634376,-0.0341875103505363,0.1135220304131508,-0.062078583985567,-0.0811901986598968,0.0069870967417955,-0.0036633014678955,-0.011074423789978,-0.0170224546181969,0.0106237944835553,-0.0067572570481113,0.9997757795914808
15879.62603966667,0.0167694091796875,0.0279083251953125,-0.99737548828125,15879.62107066667,-0.0139753624071544,0.020558030773583,-0.0331495869987447,0.100467748939991,-0.021043000742793,-0.0771685615181922,0.0036704000085592,-0.0029464028775691,-0.0034003257751464,-0.0165009404921159,0.0103929791477884,-0.0071566534232502,0.9997841677148426
15879.63597966667,0.0212249755859375,0.0258636474609375,-0.9976959228515624,15879.63100966667,-0.0147567624868125,0.0206077717346159,-0.0322671029874931,0.0803385078907012,0.0297801010310649,-0.0752580091357231,-0.0038261879235506,-0.0043532066047191,0.0018917918205261,-0.0160555417527601,0.010421108914237,-0.0075431859059938,0.9997883539163976
15879.64591966667,0.0226287841796875,0.0238189697265625,-1.000900268554688,15879.64094966667,-0.0154988523527333,0.0210296318011613,-0.031708518736251,0.0383601710200309,0.0562804192304611,-0.0738590508699417,0.0002074558287858,-0.0058395825326442,0.0015804171562194,-0.0157707726367212,0.0106358340185267,-0.0079146364953189,0.9997876692353832
15879.65585966667,0.024200439453125,0.0243988037109375,-1.002944946289062,15879.65088966667,-0.0162065637408576,0.0215447504341213,-0.0315963060105083,-0.0139158181846141,0.0498446226119995,-0.0684206038713455,0.0010964442044496,-0.0077721066772937,-0.0016313195228576,-0.0157087826394423,0.0108984717856345,-0.0082718796111216,0.9997829896250976
15879.66579866667,0.026214599609375,0.0244293212890625,-1.006027221679688,15879.66082866667,-0.0168613069154624,0.0217804440884874,-0.0319908559634238,-0.0631155893206596,-0.0012193601578474,-0.0624785646796226,0.0024328511208295,-0.0075866244733333,-0.0036936402320861,-0.0159014325357921,0.0110230636665319,-0.0086031522572296,0.9997757537887504
15879.67573866667,0.02581787109375,0.02716064453125,-1.00555419921875,15879.67076866667,-0.0174794369392506,0.0215203092333888,-0.032790011124877,-0.0937443375587463,-0.0470693074166774,-0.0586629211902618,0.0047075115144252,-0.0083548389375209,-0.0067961812019348,-0.0162986710701093,0.0109013613505443,-0.008914321646453,0.9997679850876476
15879.68567866667,0.0238037109375,0.03033447265625,-1.001235961914062,15879.68070866667,-0.0180499626934215,0.0209374606727773,-0.0337908859347734,-0.1036254689097404,-0.061061292886734,-0.0570365265011787,0.0048938822001218,-0.006623838096857,-0.0063440799713134,-0.0167985620939933,0.010619082307428,-0.0091999314627154,0.9997601554971774
15879.69561866667,0.0186614990234375,0.0299224853515625,-0.99945068359375,15879.69064866667,-0.0185938718560352,0.0204835362058557,-0.0348374271486608,-0.1086939945816994,-0.0237274672836065,-0.0574811436235904,0.0033340286463499,-0.0044959336519241,-0.002052366733551,-0.0173209673260023,0.0104015147223941,-0.0094732829286614,0.9997509729521452
15879.70555766667,0.02215576171875,0.031280517578125,-0.9993438720703124,15879.70058766667,-0.0191002331394005,0.0204477585243032,-0.0359388867554803,-0.1132080554962158,0.0181523375213146,-0.0493750125169754,-0.0017716418951749,-0.0060086958110332,-0.0003052949905395,-0.0178690977242261,0.0103931739724927,-0.0097316265907869,0.9997389449735488
15879.71549766667,0.0229034423828125,0.0324249267578125,-1.007278442382812,15879.71052766667,-0.0195743519763768,0.0206550602841427,-0.0370397910799176,-0.1070564165711403,0.0217521339654922,-0.0497028492391109,0.0015163291245698,-0.0057508312165737,-0.0002429485321044,-0.018415906110933,0.0105063157514778,-0.0099760610093444,0.9997254197613332
15879.72543766667,0.0267486572265625,0.035614013671875,-1.01251220703125,15879.72046766667,-0.0199961802393741,0.0205587263200879,-0.0378624129364962,-0.0581719651818275,-0.0438921228051185,-0.0426787622272968,0.0023608915507793,-0.0054284669458866,-0.008206307888031,-0.0188253779168745,0.0104660782734562,-0.0101901801510556,0.999716046876379
15879.73537666667,0.022247314453125,0.0344085693359375,-1.00457763671875,15879.73040766667,-0.0203557699452546,0.0198425613567039,-0.0381722572406389,-0.0128217916935682,-0.0839917361736297,-0.0367937088012695,0.0069218445569276,-0.0025490000844001,-0.0134373903274536,-0.018982086159179,0.0101130288245976,-0.0103646890928543,0.999714955746793
15879.74531666667,0.01678466796875,0.0323486328125,-0.998809814453125,15879.74034666667,-0.0206880895753678,0.0192137488494164,-0.0382351747750589,-0.006548449397087,-0.0359746813774108,-0.0336865969002246,0.0030487813055515,-0.0038173198699951,-0.0054929256439208,-0.0190151650703315,0.009802185500518,-0.0105251290108383,0.9997157689377012
15879.75525666667,0.017303466796875,0.0325775146484375,-0.9980621337890624,15879.75028666667,-0.0209878520138648,0.0192078197045723,-0.0383201298690043,-0.0120864938944578,0.0329497270286083,-0.0283789187669754,-0.0024078767746686,-0.0059621483087539,0.000271737575531,-0.019056193890176,0.0098025100611696,-0.0106753110363472,0.9997133391305196
15879.76519666667,0.0214691162109375,0.0371856689453125,-1.004867553710938,15879.76022666667,-0.0212440894932041,0.0197652470670797,-0.0383990221917053,-0.0002862927503883,0.0672373920679092,-0.0226011909544467,-0.0024459324777126,-0.0058121010661125,0.0010055303573608,-0.0190913605153329,0.0100839956762714,-0.0108090848940813,0.999708450923326
15879.77513566667,0.026763916015625,0.03680419921875,-1.01177978515625,15879.77016566667,-0.0214465720713094,0.0203094617481305,-0.0381453477139534,0.0548789575695991,0.0276919808238744,-0.0166809819638729,0.0011758171021938,-0.0009504556655883,-0.0058010816574096,-0.018960569319601,0.0103566205263746,-0.0109142290360165,0.9997070239484236
15879.78507566667,0.0229339599609375,0.032989501953125,-1.005828857421875,15879.78010566667,-0.0216055760822596,0.0203307886525045,-0.0373465197782777,0.0970282703638076,-0.0096218353137373,-0.0115442778915166,0.00644869543612,-0.0005336701869964,-0.0126835703849792,-0.0185603292447765,0.0103645513079622,-0.0109899323355294,0.9997136061371068
15879.79501566667,0.01885986328125,0.0316314697265625,-0.998687744140625,15879.79004566667,-0.0217270511091538,0.02031044663349,-0.0363346866424609,0.1011412590742111,0.0078214034438133,-0.0100041711702942,0.0026383064687252,-0.0033372193574905,-0.0066949725151062,-0.0180540375900542,0.0103501112249704,-0.0110454293134601,0.9997223404134356
15879.80495566667,0.0211639404296875,0.0296478271484375,-1.000152587890625,15879.79998566667,-0.0218280168678184,0.0205882592912217,-0.0353499690629469,0.0983105823397636,0.0436268076300621,-0.0064328722655773,-0.0017140861600637,-0.0037111639976501,0.0004757046699523,-0.0175597473322023,0.0104846081299763,-0.0110934342959063,0.9997292642086254
15879.81489466667,0.0227203369140625,0.029052734375,-1.00555419921875,15879.80992466667,-0.0218915711495014,0.0210754947636054,-0.0343596242508848,0.0991036742925643,0.0491984412074089,-0.0023503797128796,0.0001024361699819,-0.0047050602734088,-0.0009647607803344,-0.0170616615400114,0.0107233891481834,-0.0111243574368603,0.9997350553015096
15879.82483466667,0.0242919921875,0.0293121337890625,-1.004364013671875,15879.81986466667,-0.0219218024832421,0.0214323296134433,-0.0333674830441,0.098263181746006,0.0211633406579494,-0.0012502276804298,0.0013015680015087,-0.0043085850775241,-0.0063403248786926,-0.0165635706691321,0.0108966716176762,-0.0111372910740269,0.9997413423787656
15879.83477466667,0.0244598388671875,0.02593994140625,-1.004669189453125,15879.82980466667,-0.0219356302247298,0.0214371972445893,-0.0324528156728811,0.0820408016443252,-0.0142719466239213,0.0026816627942025,0.0028677154332399,-0.0031350143253803,-0.0051202178001403,-0.0161062484674638,0.0108942845015734,-0.0111394244717827,0.99974886914349
15879.84471366667,0.02239990234375,0.02484130859375,-1.0006103515625,15879.83974466667,-0.0219075658524541,0.0212088137799769,-0.031833654654845,0.0388744249939918,-0.028567261993885,0.0061858501285314,0.0032633524388074,-0.0058883614838123,-0.0054005980491638,-0.0157981653342436,0.0107765568713074,-0.0111203278989064,0.999755350080222
15879.85465366667,0.0206451416015625,0.02593994140625,-0.99847412109375,15879.84968366667,-0.021869935723969,0.0209666407144532,-0.0316777374734795,-0.0078629860654473,-0.0181009732186794,0.0004227696917951,0.00144531019032,-0.006831157952547,-0.0013317465782165,-0.0157217737576338,0.0106543643618508,-0.0110988019256938,0.9997580067467172
15879.86459366667,0.021331787109375,0.0244293212890625,-0.997955322265625,15879.85962366667,-0.0218432575341874,0.0208692578285226,-0.031993985610891,-0.0548400804400444,-0.0008543413132429,0.0021852497011423,-0.0002119299024343,-0.0060486122965812,0.0007964968681335,-0.0158805421629144,0.0106071755016933,-0.0110863228435301,0.9997561218568024
15879.87453366667,0.020111083984375,0.0276031494140625,-1.00140380859375,15879.86956366667,-0.0218233265745747,0.020994564357899,-0.0327081905661812,-0.088510163128376,0.025594575330615,-0.0008683307096362,0.000349985435605,-0.0082730650901794,0.0012895464897155,-0.0162369677118496,0.0106734892264851,-0.0110810383599915,0.9997498534376033
15879.88447266667,0.0240478515625,0.0296173095703125,-1.004959106445312,15879.87950266667,-0.0218124467224449,0.0212819984269568,-0.033671699508162,-0.1025982871651649,0.0304777491837739,-0.0028409343212842,-0.0011572539806365,-0.0060622133314609,-0.0021969676017761,-0.0167170687091983,0.0108222509791509,-0.0110829724847252,0.9997402144863932
15879.89441266667,0.025787353515625,0.0299224853515625,-1.006195068359375,15879.88944266667,-0.0218269000832159,0.0213760179353695,-0.034659151548998,-0.0979081913828849,-0.0117659792304039,-0.0022915240842849,0.0026862900704145,-0.005034927278757,-0.005787968635559,-0.0172100658433742,0.0108746657865835,-0.0110961664062683,0.9997311743722368
15879.90435266667,0.02374267578125,0.0305328369140625,-1.006622314453125,15879.89938266667,-0.0218330842819747,0.0210210656933047,-0.035563522058209,-0.0894276201725006,-0.0528124794363975,-0.0024153608828783,0.0047811176627874,-0.005633570253849,-0.0070481300354003,-0.017664066561472,0.010702142286898,-0.0111008682098849,0.999725054519736
15879.91429266667,0.02001953125,0.0312957763671875,-1.00128173828125,15879.90932266667,-0.0218557588446399,0.0204770812129088,-0.0364272152437812,-0.0851098373532295,-0.0503549799323082,-0.0064340708777308,0.0032806005328893,-0.0058863461017608,-0.0074952244758605,-0.0180986969264946,0.0104350637082448,-0.0111117335214534,0.9997199383226136
15879.92423166667,0.02130126953125,0.0325469970703125,-0.9985198974609376,15879.91926166667,-0.0218632094495919,0.0201345513311714,-0.0372674470984692,-0.0867458209395408,-0.0195438060909509,0.0002299570478498,-9.968876838684082e-05,-0.0059630759060382,-0.0021786093711853,-0.018520559647734,0.0102684269630068,-0.011116501136953,0.999713936326876
15879.93417166667,0.020721435546875,0.035919189453125,-1.006011962890625,15879.92920166667,-0.0218623346265418,0.0200891779606995,-0.0380274350058326,-0.0689130276441574,0.0012309458106756,-0.0006831076461821,0.0012279581278562,-0.0054713003337383,0.0005555152893066,-0.0189007011401983,0.0102498191536117,-0.0111193809588139,0.9997070199832176
15879.94411166667,0.023590087890625,0.036102294921875,-1.0108642578125,15879.93914166667,-0.0218573876447761,0.019957764406748,-0.0384729265174588,-0.0206344407051801,-0.0275469049811363,-0.001129453536123,0.0007797572761774,-0.0025442726910114,-0.0069509744644165,-0.0191241372440145,0.0101864756339043,-0.0111178414305828,0.9997034751649092
15879.95405166667,0.0187225341796875,0.03497314453125,-1.004119873046875,15879.94908166667,-0.0218610482824754,0.0196307454078437,-0.0384464903252176,0.0170032158493995,-0.0346149355173111,0.0004221042618155,0.0039751026779413,-0.002334751188755,-0.0117957592010498,-0.0191127235678283,0.0100229082848899,-0.0111164179481247,0.9997052935072342
15879.96399066667,0.017974853515625,0.0342864990234375,-0.9971466064453124,15879.95902066667,-0.0218550538469005,0.0194838322526845,-0.0382157167225089,0.027304321527481,0.0077034924179315,0.002183252479881,-0.0007458478212356,-0.0032333023846149,-0.005039632320404,-0.0189982166789616,0.0099481771449112,-0.0111109181452226,0.9997082703366428
15879.97393066667,0.018890380859375,0.0333709716796875,-1.001556396484375,15879.96896066667,-0.0218412172708809,0.0198341901566056,-0.0379185778892136,0.0294585525989532,0.0584897063672542,4.793005064129829e-05,-0.0018437877297401,-0.0036230199038982,0.0019380450248718,-0.018847811958979,0.0101215785988795,-0.0111058868129805,0.9997095084416684
15879.98387066667,0.0221099853515625,0.033660888671875,-1.008651733398438,15879.97890066667,-0.0218146557153546,0.0204753243666821,-0.0375049216096336,0.0538198202848434,0.0603896044194698,0.0046235066838562,-0.0015691220760345,-0.0041251853108406,-0.0024690628051757,-0.0186376227044334,0.0104395873959124,-0.0110965781595135,0.9997101803303126
15879.99380966667,0.0251007080078125,0.033843994140625,-1.006011962890625,15879.98883966667,-0.0217955917926584,0.0209002757908941,-0.0367991534689806,0.0842043533921241,0.0211181007325649,0.0009539374150335,0.0012253727763891,-0.0031299851834774,-0.0095469951629638,-0.0182825818718827,0.0106480471776698,-0.0110873931420907,0.9997146651611748
15880.00374966667,0.02398681640625,0.0321502685546875,-1.004241943359375,15879.99877966667,-0.0217936054076417,0.0209333758696289,-0.0358768139754312,0.0982746332883834,-0.0099560283124446,0.002016139216721,0.0041823200881481,-0.0020251534879207,-0.0068743824958801,-0.0178213656702367,0.0106596371126013,-0.0110819674819108,0.9997230060279868
15880.01368966667,0.022247314453125,0.0296173095703125,-1.001373291015625,15880.00871966667,-0.0217916072045457,0.0208249204975621,-0.0348791725507319,0.1013109013438225,-0.0085229817777872,0.0034241522662341,0.0031760577112436,-0.0027218610048294,-0.0050668120384216,-0.0173232925390302,0.0106000662054226,-0.0110749071932681,0.9997323350110888
15880.02362966667,0.0209197998046875,0.0301361083984375,-0.9984283447265624,15880.01865966667,-0.0217938890915853,0.0208652831094505,-0.0339075839691484,0.0952213183045387,0.02064741961658,0.0012984173372387,0.0013955291360616,-0.0042838081717491,-0.0021656155586242,-0.0168373867619605,0.0106150552120505,-0.0110714201214436,0.9997406352782872
15880.03356866667,0.021270751953125,0.0280303955078125,-1.00091552734375,15880.02859866667,-0.0217815408857932,0.0211786658529985,-0.0329952530838748,0.0840189978480339,0.0384387671947479,0.0035481224767863,-0.0002457629889249,-0.0028531849384307,0.0008032321929931,-0.0163796683627683,0.0107667156964043,-0.0110631393963237,0.9997467108476
15880.04350866667,0.0240020751953125,0.026885986328125,-1.004531860351562,15880.03853866667,-0.0217618932714407,0.0215322711618688,-0.0322698790079229,0.0622846782207489,0.03108018822968,0.0028588962741196,-0.0002486556768417,-0.0042339153587818,-0.0016677975654602,-0.0160152224851157,0.0109394305176494,-0.0110523742322967,0.9997508710645152
15880.05344866667,0.0236663818359375,0.0247955322265625,-1.002609252929688,15880.04847866667,-0.0217494417022555,0.0216659655282296,-0.0318510772155372,0.021114869043231,-0.0011177957057952,0.0002880143001675,0.0023487862199544,-0.0049597322940826,-0.0052736401557922,-0.0158052042650492,0.0110039222956713,-0.0110449904188164,0.9997534700254932
15880.06338866667,0.02288818359375,0.0258636474609375,-1.001785278320312,15880.05841866667,-0.0217525765574158,0.0214974412477851,-0.0318604311672349,-0.0240536741912365,-0.0297696813941001,-0.0010648716706782,0.0021814983338117,-0.0070595368742942,-0.0033476948738098,-0.0158107936536892,0.0109197557416108,-0.0110452751230007,0.999754298710798
15880.07332766667,0.022735595703125,0.026458740234375,-0.9999237060546876,15880.06835766667,-0.0217711815857942,0.0211901144084699,-0.0323143373867151,-0.0640333145856857,-0.0304486192762851,-0.0029654367826879,0.0017107091844081,-0.0064450949430465,-0.0025317072868347,-0.0160392877467252,0.0107687077786525,-0.0110545094454233,0.9997522571722116
15880.08326766667,0.02020263671875,0.029083251953125,-1.001724243164062,15880.07829766667,-0.021782434195594,0.0209812211129876,-0.0330695803614506,-0.0874305143952369,-0.0096328202635049,-0.0031955339945852,0.0017673764377832,-0.0066048428416252,-0.0006904006004333,-0.0164179110736931,0.0106684245106094,-0.0110623526417585,0.9997470850308212
15880.09320766667,0.0209503173828125,0.0294036865234375,-1.000228881835938,15880.08823766667,-0.0217805231119469,0.0210082567811493,-0.0339862767927017,-0.0944625958800315,0.0130659006536006,-0.0011997609399259,-0.0007919520139694,-0.0048965103924274,-0.0025222301483154,-0.0168760043923674,0.0106868332691255,-0.0110663493908294,0.99973919141335
15880.10314666667,0.0228424072265625,0.0313873291015625,-1.005081176757812,15880.09817766667,-0.0217768937851877,0.0211301794459526,-0.0349425008993151,-0.0967947244644165,0.0090357381850481,-0.0022343988530337,-0.0001653991639614,-0.0055317319929599,-0.0010623931884765,-0.0173533349824541,0.0107528649322028,-0.0110705235683162,0.9997303401970248
15880.11308666667,0.0243072509765625,0.0328369140625,-1.006332397460938,15880.10811666667,-0.0217813362270549,0.0210824202248892,-0.0358400480876702,-0.0868579372763633,-0.0213883444666862,-0.0017568941693753,0.0017750803381204,-0.0044450722634792,-0.0059454441070556,-0.0178022283073319,0.0107338329882238,-0.0110769729032132,0.9997225740686356
15880.12302666667,0.021820068359375,0.0331268310546875,-1.005035400390625,15880.11805666667,-0.0217698000873256,0.0207330031909409,-0.0366414316755738,-0.0760156735777854,-0.0457631945610046,-0.0014562231954187,0.0035896394401788,-0.003796350210905,-0.0072183609008789,-0.0182048068755977,0.0105633559779555,-0.0110721705230053,0.9997171302006752
15880.13296666667,0.0216064453125,0.0344696044921875,-1.002899169921875,15880.12799666667,-0.0217791437644966,0.0202814406118629,-0.0373229030165525,-0.0616513863205909,-0.0424515195190906,-0.0005234512500464,0.0015541352331638,-0.0041874349117279,-0.0059373378753662,-0.0185478981971567,0.010341368889733,-0.011076116176493,0.9997131128024374
15880.14290566667,0.0189056396484375,0.034637451171875,-1.001922607421875,15880.13793566667,-0.0217919372985399,0.0199589207759473,-0.0378575339196709,-0.0460985228419303,-0.0248008873313665,-0.0010446317028254,0.0016631428152322,-0.0033789165318012,-0.003814697265625,-0.0188168574011622,0.0101831348893614,-0.0110821314664328,0.9997097078545084
15880.15284566667,0.019622802734375,0.0354766845703125,-1.00384521484375,15880.14787566667,-0.0217916510399714,0.0198299664319459,-0.0382101217631661,-0.0294692125171423,-0.0062468443065881,-0.0015825901646167,-0.0009085610508918,-0.0035633966326713,-0.0028489828109741,-0.0189938184021604,0.0101205618726858,-0.0110824871590631,0.9997068983748144
15880.16278566667,0.01873779296875,0.0371856689453125,-1.00537109375,15880.15781566667,-0.0217877659440947,0.0198184945692926,-0.0383158061274769,0.0033337420318275,-0.0002616569399833,0.0016440958715975,-0.0001798551529645,-0.0028297752141952,-0.0047754049301147,-0.0190467282267184,0.0101153560598835,-0.0110809485370669,0.9997059767149752
15880.17272429167,0.0196533203125,0.034698486328125,-1.004531860351562,15880.16775566667,-0.0217797333965552,0.019861988398493,-0.0381322197995577,0.0298369880765676,0.0100262016057968,0.0016784500330686,-0.0011084582656621,-0.0009373389184474,-0.0062951445579528,-0.0189547614029027,0.010136038179116,-0.0110764554324773,0.9997075612545644
15880.18266329167,0.02020263671875,0.0345611572265625,-1.0010986328125,15880.17769329167,-0.0217765224414256,0.0200531760235914,-0.0376997888954884,0.0520283132791519,0.0289498250931501,5.31231053173542e-05,-0.0003842711448669,-0.0029923990368843,-0.0054433345794677,-0.0187375649042529,0.0102292606806487,-0.0110745392240144,0.999710761121583
15880.19260329167,0.020843505859375,0.0335845947265625,-1.00360107421875,15880.18763329167,-0.0217831345132132,0.0204485056656117,-0.0371102679699955,0.0627637803554534,0.0451076254248619,0.0012289085425436,-0.000230373814702,-0.0025406219065189,-0.0019960403442382,-0.0184406639080884,0.0104237765391598,-0.0110785946322351,0.999714253250026
15880.20254329167,0.0228271484375,0.034027099609375,-1.00518798828125,15880.19757329167,-0.0217833850860119,0.0208853642436377,-0.0363896560848101,0.0782109126448631,0.0397040694952011,0.0020464989356696,-2.652406692504883e-05,-0.0027970597147941,-0.004481017589569,-0.01807803661343,0.0106382907234679,-0.0110790575661177,0.9997186552618874
15880.21248229167,0.0228118896484375,0.03118896484375,-1.006011962890625,15880.20751329167,-0.0217589021567735,0.0211515328294644,-0.0355635291004259,0.0871647223830223,0.0115713682025671,0.0023738015443086,0.0016905590891838,-0.0015289597213268,-0.0060438513755798,-0.0176637447644602,0.0107667024624931,-0.0110649393433715,0.99972479346704
15880.22242229167,0.022430419921875,0.029876708984375,-1.003082275390625,15880.21745229167,-0.0217525948528236,0.0211706885848807,-0.0346674068697155,0.0921067520976066,-0.0089733218774199,0.0012914929538965,0.0016554947942495,-0.0034715235233306,-0.0068367719650268,-0.0172157303710692,0.0107714324525627,-0.0110572988109013,0.9997327037777392
15880.23236229167,0.022003173828125,0.028839111328125,-1.002059936523438,15880.22739229167,-0.0217537563085348,0.021094495227802,-0.0337624612311885,0.0920942351222038,-0.00285364408046,0.0009396895766258,0.0013495031744241,-0.003879364579916,-0.0038745403289794,-0.0167637915868935,0.0107285183611725,-0.0110525376335166,0.9997407922575572
15880.24230229167,0.021392822265625,0.028167724609375,-0.9998016357421876,15880.23733229167,-0.021747699845293,0.0211499723770592,-0.0329027699020617,0.0797978863120079,0.0168912969529628,0.0029618274420499,0.0008662175387144,-0.0040577463805675,-0.0028247237205505,-0.0163337793138217,0.0107516010368118,-0.0110455078167653,0.9997477955127896
15880.25224129167,0.023193359375,0.02581787109375,-0.9994049072265624,15880.24727129167,-0.0217422326571556,0.0213602055870526,-0.0322356014963107,0.0533769354224205,0.0250829812139272,0.0024281302466988,4.532933235168457e-05,-0.004062321037054,-0.0005491375923156,-0.0159991456171716,0.0108530785047993,-0.0110409886349953,0.9997521826282632
15880.26218129167,0.02484130859375,0.0273284912109375,-1.002899169921875,15880.25721129167,-0.0217398280472769,0.0215715360173647,-0.0319059232848467,0.0129658635705709,0.0167403649538755,-0.0006243851967155,0.0016344673931598,-0.0060826651751995,-0.0001463890075683,-0.0158331932599477,0.0109569353889207,-0.0110397283721517,0.9997536994626932
15880.27212129167,0.0236663818359375,0.0256500244140625,-1.002670288085938,15880.26715129167,-0.0217393227700535,0.0216133331326099,-0.0319885379211311,-0.0295874569565057,-0.0084739122539758,-5.420250818133354e-05,0.0032407063990831,-0.0046546198427677,-0.0036441683769226,-0.0158742628089489,0.0109782667294425,-0.011040245976076,0.99975279435754
15880.28206129167,0.022796630859375,0.026885986328125,-1.001571655273438,15880.27709129167,-0.0217502345042061,0.0214354872441495,-0.0324447926533419,-0.0610220804810524,-0.0260518416762352,-0.0009490244556218,0.0022438094019889,-0.0067891031503677,-0.003426194190979,-0.0161032561855013,0.0108918930169419,-0.0110466930652418,0.9997500361611436
15880.29200029167,0.02276611328125,0.0286407470703125,-1.002792358398438,15880.28703029167,-0.0217617298756075,0.0211721418562596,-0.0331691209354123,-0.0833617374300956,-0.0261327661573886,-0.0038088599685579,0.0016377083957195,-0.0062770769000053,-0.0023456811904907,-0.0164667251450266,0.0107642240701767,-0.011054088749923,0.9997452907155802
15880.30194029167,0.0223236083984375,0.030242919921875,-1.001449584960938,15880.29697029167,-0.0217805654927773,0.0209921588026714,-0.0340241678736486,-0.0891035124659538,-0.0100781666114926,-0.0028120386414229,0.0017876364290714,-0.0053768828511238,-0.0035912990570068,-0.0168950339393279,0.0106789896507157,-0.0110664300618473,0.9997389512532382
15880.31188029167,0.021728515625,0.0296173095703125,-1.002227783203125,15880.30691029167,-0.0217955435390778,0.0209556152858395,-0.0349155358205756,-0.089050255715847,0.0016493294388055,-0.0026376014575362,0.0013822894543409,-0.0046655461192131,-0.0022785067558288,-0.0173407233766418,0.0106656241559791,-0.0110781930115265,0.9997313719318432
15880.32181929167,0.0227203369140625,0.031494140625,-1.003952026367188,15880.31685029167,-0.0218027801976445,0.0209478182241853,-0.0357769342105394,-0.086444079875946,-0.0057566557079553,-0.0017473069019615,0.0007956232875585,-0.0061520226299762,-0.0030869245529174,-0.0177713108979305,0.0106664034076349,-0.0110861693998248,0.9997237526757764
15880.33175929167,0.0242462158203125,0.033935546875,-1.006698608398438,15880.32678929167,-0.0217940496363561,0.0207968602304738,-0.0365789130146467,-0.0782066583633422,-0.0261272080242633,-0.0021106954663991,0.0019388794898986,-0.0050766430795192,-0.0048370361328125,-0.01817307436047,0.010595161641693,-0.011084554436177,0.999717228553824
15880.34169929167,0.0216064453125,0.0333251953125,-1.006271362304688,15880.33672929167,-0.0218005343971853,0.0204644030977809,-0.0372372260746764,-0.0566076263785362,-0.0407865792512893,-0.0012049542274326,0.0037974193692207,-0.0032931007444858,-0.0076010823249816,-0.0185039466699062,0.0104325633819759,-0.0110880754597837,0.9997128623422508
15880.35163929167,0.01971435546875,0.033966064453125,-1.001083374023438,15880.34666929167,-0.0218097174131155,0.0200513392942582,-0.0376754919320555,-0.0369258001446723,-0.0379778072237968,-0.0014369152486324,0.0015706699341535,-0.0043414086103439,-0.0071818828582763,-0.0187252599749639,0.0102285232458648,-0.0110909952352659,0.9997108338117688
15880.36157829167,0.019439697265625,0.03375244140625,-0.9996185302734376,15880.35660929167,-0.0218164063344516,0.0198256992193683,-0.0379225093463246,-0.017623471096158,-0.0075479978695511,-0.0008222577162086,-9.579956531524658e-05,-0.0039473809301853,-0.0019987225532531,-0.0188499509197411,0.0101171222570049,-0.011093424704974,0.9997095905789908
15880.37151829167,0.0195159912109375,0.035186767578125,-1.004104614257812,15880.36654829167,-0.0218196302638864,0.0199011608518491,-0.0380007911129791,0.0004644524306058,0.0190498922020196,0.0006876210682094,-0.0004457905888557,-0.0042392313480377,-0.0005383491516113,-0.0188886464040674,0.0101552924586103,-0.0110961291693277,0.9997084012042008
15880.38145829167,0.0223236083984375,0.0357513427734375,-1.006118774414062,15880.37648829167,-0.0218157103700882,0.0201261469972581,-0.0378328361523616,0.0316966734826564,0.0194597523659467,-1.998059451580048e-05,-0.0005944054573774,-0.0026370733976364,-0.0050225257873535,-0.0188034645384825,0.0102668157093491,-0.0110954668842365,0.9997088920152576
15880.39139829167,0.0209808349609375,0.0350341796875,-1.003952026367188,15880.38642829167,-0.0218097310213682,0.0203140593745785,-0.0373860684892379,0.0544866770505905,0.0166659634560346,0.0038352119736373,0.0020251329988241,-0.001626044511795,-0.0070237517356872,-0.0185791317930047,0.0103582949161238,-0.0110920214820402,0.9997122431430858
15880.40133729167,0.020843505859375,0.0338134765625,-1.002456665039062,15880.39636729167,-0.0218043170803385,0.0205085475190382,-0.0367522245036745,0.0674360319972038,0.0219547320157289,0.00256062252447,0.0004875659942626,-0.0017098002135753,-0.0048374533653259,-0.0182612499521695,0.0104520673700083,-0.0110879378056073,0.9997170980797866
15880.41127729167,0.0227203369140625,0.032928466796875,-1.00201416015625,15880.40630729167,-0.0218038384394153,0.0207840028294866,-0.0360397869127122,0.0733168199658393,0.0278120879083871,0.0004380829632282,7.448717951774597e-05,-0.0022185333073139,-0.003321886062622,-0.0179036036201254,0.0105859355391906,-0.0110865823445238,0.9997222535861482
15880.42121729167,0.02337646484375,0.03125,-1.003204345703125,15880.41624729167,-0.0217923689687904,0.0210406298509257,-0.0352825165500768,0.0770460441708564,0.0197461750358343,0.0018596784211695,0.0016943477094173,-0.0023467577993869,-0.0028577446937561,-0.0175237115954532,0.0107100579532306,-0.0110792385637901,0.9997276537393334
15880.43115729167,0.0231170654296875,0.0312957763671875,-1.00421142578125,15880.42618729167,-0.0217908405490274,0.0211562880408867,-0.0344923292192023,0.083867996931076,0.0032391026616096,0.0026999060064554,0.0022343304008245,-0.0032355152070522,-0.0040227770805358,-0.0171280899903884,0.0107636268696433,-0.0110753844160451,0.9997339943108112
15880.44109629167,0.0221099853515625,0.0288848876953125,-1.002548217773438,15880.43612629167,-0.0217901510002907,0.0211546394675293,-0.0336703743366709,0.0815899297595024,-0.0024254415184259,0.000989890191704,0.0019759852439165,-0.0023682639002799,-0.0050018429756164,-0.0167172304707879,0.0107583935486675,-0.0110707550424765,0.9997411261475204
15880.45103629167,0.02197265625,0.0290069580078125,-1.0001220703125,15880.44606629167,-0.0217889031940375,0.0211761695024167,-0.0329035587366622,0.0707519277930259,0.0060051288455724,0.0006298311054706,0.0009468514472246,-0.0040127672255039,-0.0033135414123535,-0.0163338071943563,0.0107650370316433,-0.0110663223539494,0.9997474192175022
15880.46097629167,0.0223236083984375,0.0262451171875,-1.001571655273438,15880.45600629167,-0.0217857239739402,0.0212839639536343,-0.0323049749037552,0.0489409044384956,0.0127362683415412,0.0045364219695329,0.0007013939321041,-0.0032924301922321,-0.0008701682090759,-0.0160340095387149,0.0108156868487155,-0.0110624819582421,0.9997517921176196
15880.47091529167,0.0227813720703125,0.0256195068359375,-1.00048828125,15880.46594629167,-0.0217767286895724,0.0214210639237312,-0.0319815367495404,0.0153920026496052,0.0111277196556329,0.000205588992685,0.000915128737688,-0.0057309940457344,-0.0023123025894165,-0.0158716218653155,0.0108824160021564,-0.0110573821000867,0.9997536278344006
15880.48085529167,0.0229644775390625,0.02679443359375,-1.002944946289062,15880.47588529167,-0.0217718947213368,0.021476933156843,-0.032031415862527,-0.0252750013023614,-0.0017175059765577,0.0007496727630496,0.001317098736763,-0.0064064562320709,-0.0012317299842834,-0.0158962728406602,0.0109105725231019,-0.0110556724882379,0.999752948226163
15880.49079529167,0.0236053466796875,0.0269775390625,-1.00164794921875,15880.48582529167,-0.0217703064439002,0.0214036729123796,-0.0324200369129426,-0.0526208728551864,-0.0147493854165077,-0.0022608977742493,0.0015736781060695,-0.0056199505925178,-0.0036993622779846,-0.0160909496522265,0.0108760201014415,-0.0110563413532512,0.9997501918058148
15880.50073529167,0.023345947265625,0.0291595458984375,-1.00299072265625,15880.49576529167,-0.021769650792729,0.0212355938496009,-0.0330473802033472,-0.070741020143032,-0.0205470863729715,-0.0015013641677796,0.0023829359561204,-0.0060638524591922,-0.0024192929267883,-0.0164054755042735,0.0107953547417447,-0.0110579346633776,0.9997459852012976
15880.51067429167,0.0217132568359375,0.029052734375,-1.002670288085938,15880.50570429167,-0.021779912756217,0.0210644981647942,-0.0337941163264822,-0.0811728909611702,-0.0143256084993481,-0.0033429397735744,0.0022950265556573,-0.004628162831068,-0.0037834048271179,-0.0167796390899939,0.0107139113562826,-0.0110655236445861,0.9997406395307286
15880.52061429167,0.023223876953125,0.0296478271484375,-1.001449584960938,15880.51564429167,-0.0217987525904497,0.0209681556929345,-0.034577496285541,-0.0775579139590263,-0.0053395703434944,-0.0022656910587102,0.0007591638714075,-0.0055178962647914,-0.0034877061843872,-0.0171716616610074,0.0106701095783183,-0.0110781663213315,0.9997342341389536
15880.53055429167,0.022918701171875,0.031890869140625,-1.00189208984375,15880.52558429167,-0.0218084187940177,0.0209168936012958,-0.0353224626643889,-0.0745759680867195,-0.0042538018897175,-0.0036492035724222,0.0023215487599372,-0.0056673176586627,-0.002291977405548,-0.017544278391744,0.0106485607779993,-0.0110863815297926,0.9997279214702413
15880.54049329167,0.02288818359375,0.0333251953125,-1.004714965820312,15880.53552429167,-0.0218248772524151,0.0208238443746178,-0.0360536386835581,-0.0721314549446106,-0.0165355019271373,-0.0012600817717611,0.0021098870784044,-0.0041549876332283,-0.0027586221694946,-0.0179101954347755,0.0106061135253735,-0.0110975263733886,0.9997217859176992
15880.55043329167,0.0225830078125,0.0338592529296875,-1.006088256835938,15880.54546329167,-0.0218240664156706,0.0206435019286813,-0.0367122838162555,-0.0610809326171875,-0.0230918042361736,-0.001330389175564,0.0022600498050451,-0.0033788681030273,-0.0056017041206359,-0.0182404323467438,0.0105194912553437,-0.0110988393192312,0.9997166909192468
15880.56037329167,0.0217437744140625,0.0339508056640625,-1.005813598632812,15880.55540329167,-0.0218345896687917,0.0203863846638234,-0.0372094927555537,-0.0433112606406211,-0.0271089151501655,-0.0020702152978628,0.0022121388465166,-0.0033416785299777,-0.0069881081581115,-0.0184903380307652,0.010393730870771,-0.011104236979871,0.9997134181414504
15880.57031329167,0.0191802978515625,0.03509521484375,-1.003433227539062,15880.56534329167,-0.0218407005463039,0.0201253047104413,-0.0375172082193209,-0.0222360659390687,-0.020863402634859,-0.002342656487599,0.0016339812427759,-0.003557626157999,-0.0067196488380432,-0.0186455728330601,0.0102649370580868,-0.0111063957526772,0.99971170363642
15880.58025229167,0.021087646484375,0.0359954833984375,-1.000885009765625,15880.57528329167,-0.0218482677438057,0.0200203594001755,-0.0376386040540083,-0.0063218148425221,-0.0011722557246685,-0.000266988761723,-0.0008245538920164,-0.0025345273315906,-0.004341721534729,-0.018706795706915,0.0102132004537762,-0.0111097936627636,0.9997111555338276
15880.59019229167,0.0215911865234375,0.0360260009765625,-1.003448486328125,15880.58522229167,-0.021848783185512,0.0201224163470108,-0.0376130952691002,0.0153994597494602,0.0172362104058265,-0.0001757754944264,0.0009808130562305,-0.001608770340681,-0.0017945766448974,-0.01869347494551,0.0102640818628065,-0.0111108799407941,0.9997108943133548
15880.60013229167,0.022491455078125,0.0347747802734375,-1.006500244140625,15880.59516229167,-0.0218591025071692,0.0203333549742315,-0.0373709163378734,0.0336932465434074,0.0205273441970348,0.001405609305948,0.0012734215706586,-0.001336246728897,-0.0043532848358154,-0.0185711958043354,0.0103683177551033,-0.011116804465367,0.999711962590768
15880.61007229167,0.022216796875,0.0328216552734375,-1.003128051757812,15880.60510229167,-0.0218438011848528,0.0205397089359831,-0.0369137065340904,0.0555074661970138,0.0158382188528776,0.0029676863923668,0.0019671712070703,-0.0021305754780769,-0.0073922276496887,-0.0183415887627046,0.0104688704261817,-0.0111087714231821,0.9997152309430832
15880.62001129167,0.02178955078125,0.03173828125,-1.002273559570312,15880.61504129167,-0.021833750092336,0.020710384462553,-0.036315149482268,0.0615435168147087,0.0182869937270879,0.001877122092992,0.0015215389430522,-0.0034855380654335,-0.0040016770362854,-0.0180414976146,0.0105508813977807,-0.0111022733374214,0.999719957591129
15880.62995129167,0.02069091796875,0.03271484375,-1.003997802734375,15880.62498129167,-0.021830576176612,0.0208851100728873,-0.0356689184882874,0.0667627826333046,0.014617757871747,0.0021253288723528,0.0009192358702421,-0.0039231032133102,-0.0031275749206542,-0.0177175172633754,0.0106347255390738,-0.0110989528808339,0.9997249157792476
15880.63989129167,0.0230560302734375,0.0324859619140625,-1.002044677734375,15880.63492129167,-0.0218280481898745,0.0210140358573308,-0.0349959507531795,0.0675337687134742,0.0099537633359432,0.0012872321531176,-0.0003087129443883,-0.0022739954292774,-0.0048307180404663,-0.0173804226578757,0.0106955396961363,-0.0110953621223749,0.9997301777165508
15880.64983129167,0.022186279296875,0.029052734375,-1.00262451171875,15880.64486129167,-0.0218291696969083,0.0210999524797181,-0.0343096548211665,0.0719191953539848,0.0059191416949033,0.0007575289346277,0.0019700527191162,-0.001816987991333,-0.0028556585311889,-0.0170368821263255,0.0107348142357496,-0.0110931146902168,0.9997357096093626
15880.65977029167,0.0213470458984375,0.0281982421875,-1.002410888671875,15880.65480029167,-0.0218369998138781,0.0211707611725385,-0.0336035310506179,0.0700762867927551,0.0102779380977153,0.0017767208628356,0.0010290443897247,-0.0045445002615451,-0.0034130215644836,-0.0166834757493762,0.0107664849036339,-0.0110939604529616,0.9997413555752486
15880.66971029167,0.0221099853515625,0.0277252197265625,-1.003738403320312,15880.66474029167,-0.0218437711926852,0.021293718155248,-0.0329564985445904,0.059577576816082,0.0131928343325853,0.0014574080705642,6.648898124694824e-05,-0.0047523230314254,-0.00318044424057,-0.0163593240219184,0.0108245296164469,-0.011094987052005,0.9997459842532528
15880.67965029167,0.023162841796875,0.0268096923828125,-1.002761840820312,15880.67468029167,-0.021847957422902,0.0214138800305922,-0.0324566873103221,0.040195882320404,0.0088199246674776,-0.0005370331928133,0.0007090121507644,-0.0047257952392101,-0.0044942498207092,-0.0161087910194322,0.0108819437852355,-0.0110954318823248,0.9997494327617272
15880.68958929167,0.023773193359375,0.0270843505859375,-1.002471923828125,15880.68462029167,-0.0218464429561396,0.0214938984433963,-0.0321807516329365,0.0142345931380987,0.0047913584858179,-0.0005801767110824,0.0016817171126604,-0.0053655356168746,-0.0035104155540466,-0.0159704223387034,0.0109204486075714,-0.0110938618944179,0.9997511945536296
15880.69952929167,0.0227813720703125,0.0267791748046875,-1.002792358398438,15880.69455929167,-0.0218637360107875,0.0214740440503521,-0.0322139544032635,-0.0169041510671377,-0.0078485365957021,-0.0026899329386651,0.0023119300603866,-0.0051240622997283,-0.0032211542129516,-0.0159870352000788,0.0109108403680315,-0.0111025228409565,0.999750953552306
15880.70946929167,0.022064208984375,0.027557373046875,-1.003387451171875,15880.70449929167,-0.0218760776446875,0.0213806179567461,-0.0325192906369978,-0.0426023229956626,-0.0105815716087818,-0.0043231160379946,0.0014136787503957,-0.005734410136938,-0.0035495162010192,-0.0161401174546827,0.0108658808036518,-0.0111095500943162,0.9997488986174384
15880.71940929167,0.0216064453125,0.02691650390625,-1.001144409179688,15880.71443929167,-0.0218893334041787,0.0212720982249288,-0.0330387189878779,-0.0626601874828338,-0.014371782541275,-0.0003728494048118,0.0008053164929151,-0.0054753609001636,-0.0041592717170715,-0.0164002969003127,0.0108145372764254,-0.0111180148189246,0.9997452039010684
15880.72934829167,0.0220947265625,0.0297088623046875,-1.003860473632812,15880.72437829167,-0.0218887855527824,0.0211906705726501,-0.0336869867472742,-0.0660490617156028,-0.0053823152557015,-0.0010017550084739,0.0004293750971555,-0.0067641399800777,-0.001936137676239,-0.016724804269482,0.0107773187036549,-0.0111204476022163,0.9997402046856896
15880.73928829167,0.022491455078125,0.0296783447265625,-1.002700805664062,15880.73431829167,-0.0218960885493251,0.0211292358570783,-0.0343447124628346,-0.067862145602703,-0.0042507387697696,-0.0041701178997755,0.0009795129299163,-0.0046291276812553,-0.0046732425689697,-0.0170538842165439,0.0107502107375175,-0.0111269965233472,0.9997348807964208
15880.74922829167,0.0242767333984375,0.031158447265625,-1.002212524414062,15880.74425829167,-0.0219119946451682,0.0210513555243352,-0.0349873737095658,-0.0642034932971,-0.0117661785334348,-0.0012363796122372,0.0014545302838087,-0.0053019188344478,-0.0035342574119567,-0.0173754774185209,0.0107148770936928,-0.0111376032780479,0.9997296507780952
15880.75916829167,0.0206451416015625,0.0304718017578125,-1.004043579101562,15880.75419829167,-0.0219094451600031,0.0209126511857873,-0.0356003797793677,-0.0619789510965347,-0.0156522635370492,0.0008507398888468,0.0033788476139307,-0.0044344402849674,-0.0030646324157714,-0.0176826847534286,0.0106488222321792,-0.0111382691353837,0.9997249270374968
15880.76910729167,0.0210723876953125,0.0330657958984375,-1.00408935546875,15880.76413729167,-0.0219101526509954,0.0207551247433094,-0.0361880573135579,-0.0586582571268081,-0.0188781842589378,-0.0014943066053092,-9.491294622421265e-05,-0.0057083815336227,-0.0049135088920593,-0.0179773164452624,0.0105732502155143,-0.0111402205895087,0.9997204744613822
15880.77904729167,0.0209197998046875,0.03387451171875,-1.003280639648438,15880.77407729167,-0.021907645973004,0.020600013321125,-0.0367247607983053,-0.0497782155871391,-0.0113683361560106,-0.0016477047465741,0.0004877112805843,-0.003650739789009,-0.0049756169319152,-0.0182464724255383,0.0104985829454457,-0.0111402840718873,0.9997162998950708
15880.78898729167,0.020843505859375,0.0354461669921875,-1.003631591796875,15880.78401729167,-0.0219090684874099,0.0204587026949216,-0.0371267267056282,-0.035364381968975,-0.01424824539572,0.0016536829061806,0.0004766155034303,-0.0032437108457088,-0.0041788816452026,-0.0184481788113339,0.0104301239178968,-0.011141720773572,0.9997132889232562
15880.79892629167,0.0231475830078125,0.031402587890625,-1.00372314453125,15880.79395729167,-0.0219012828730774,0.0202925053944903,-0.0373401443261297,-0.0146705582737922,-0.0205306429415941,0.0036430642940104,0.000566529110074,-0.0018853284418582,-0.004534363746643,-0.0185558237186176,0.0103481254244221,-0.0111373568030893,0.9997121879634834
15880.80886629167,0.0222320556640625,0.031707763671875,-1.000808715820312,15880.80389629167,-0.0217215143068645,0.0200961661895446,-0.0373558718819485,0.0047675878740847,-0.0185176581144332,0.0298859849572181,0.0030667819082736,-0.00594462454319,-0.0046225786209106,-0.0185656998060225,0.0102483999260491,-0.0110457539915185,0.9997140467576936
15880.81880629167,0.0191497802734375,0.0332794189453125,-0.9996795654296876,15880.81383629167,-0.0213637649897937,0.0201004919960905,-0.0372369823197915,0.0132265863940119,0.0173141099512577,0.0385388620197773,0.0021468438208103,-0.0055206418037414,-0.0017037987709045,-0.0185080812161649,0.0102466175501884,-0.0108663851289579,0.9997170878164476
15880.82874629167,0.0211029052734375,0.0334625244140625,-1.004837036132812,15880.82377629167,-0.0210003516951582,0.0204301712063724,-0.0370415558612121,0.0223551038652658,0.0403838083148002,0.0357595905661582,-0.001264963299036,-0.0037536956369876,-0.0005740523338317,-0.0184104938846642,0.0104070395254305,-0.0106868010781054,0.9997192391161556
15880.83868529167,0.022979736328125,0.033355712890625,-1.008651733398438,15880.83371629167,-0.0206689190240568,0.0208166877176011,-0.0367003760770325,0.0432428121566772,0.0277681481093168,0.0306146275252103,0.0003017298877239,-0.0032296404242515,-0.005726933479309,-0.0182396405623376,0.0105954620995878,-0.0105229459126917,0.9997221937459342
15880.84862529167,0.02325439453125,0.0337982177734375,-1.005950927734375,15880.84365529167,-0.0203924742391101,0.0209580402799176,-0.0361413969063045,0.0620556473731994,-0.0002372544258832,0.0292886402457952,0.0020369086414575,-0.0027778409421443,-0.0095242261886596,-0.0179609584935277,0.0106608027663425,-0.0103831757255687,0.9997279229432232
15880.85856529167,0.0217742919921875,0.031494140625,-1.002944946289062,15880.85359529167,-0.0201466997416171,0.0209405139451635,-0.0354653390553758,0.0711407512426376,-0.0065548047423362,0.0236118454486131,0.0023285709321498,-0.0016597136855125,-0.0067988634109497,-0.0176244180882293,0.0106464934417034,-0.0102566866128173,0.9997354009999524
15880.86850529167,0.0200653076171875,0.03204345703125,-1.001571655273438,15880.86353529167,-0.0199382346442444,0.0209299089635789,-0.034751241993032,0.0687859803438186,0.002518318593502,0.0224451161921024,0.0008585378527641,-0.0032501369714736,-0.0037675499916076,-0.017268624249548,0.010635861916814,-0.0101487146904589,0.9997428489623807
15880.87844429167,0.0205535888671875,0.028900146484375,-1.002532958984375,15880.87347429167,-0.0197477083499291,0.0210739518705371,-0.03406895918954,0.0666021928191185,0.0254095196723938,0.0209324397146701,-0.0009948629885911,-0.0020189397037029,-0.0023738741874694,-0.0169278573407216,0.0107029139846777,-0.0100511838945689,0.9997489455230956
15880.88838429167,0.022491455078125,0.0298309326171875,-1.003707885742188,15880.88341429167,-0.0195719432582498,0.0213567225435259,-0.0334191808909048,0.0647017583250999,0.0268796179443597,0.0192856732755899,-0.0007895957678556,-0.0045128427445888,-0.0033192038536071,-0.0166025791404767,0.0108396556381244,-0.0099623015250148,0.9997538474615218
15880.89832429167,0.0235748291015625,0.0297698974609375,-1.003158569335938,15880.89335429167,-0.0194375019137318,0.0215397084822466,-0.032798670046392,0.0595613270998001,0.0090513527393341,0.0129031408578157,0.0009649880230426,-0.0029618851840496,-0.0044775605201721,-0.0162922234294756,0.010927051980033,-0.0098933268037261,0.9997585709505048
15880.90826329167,0.0240478515625,0.026641845703125,-1.004501342773438,15880.90329429167,-0.0193335793332282,0.021532234400784,-0.0323058487441101,0.03765469789505,-0.0085187871009111,0.0115803498774766,0.0020554848015308,-0.0025303587317466,-0.0039120316505432,-0.0160464751185824,0.0109201307825126,-0.009838703431123,0.9997631727368388
15880.91820329167,0.022064208984375,0.0272369384765625,-1.001800537109375,15880.91323329167,-0.0192667312697513,0.0213990138910445,-0.0320523808832007,0.0107354652136564,-0.0178893860429525,0.0035727564245462,0.0026614516973495,-0.0054050758481025,-0.0052437782287597,-0.0159207881283808,0.0108518007656274,-0.0098028820159986,0.9997663076414842
15880.92814329167,0.0208282470703125,0.0267486572265625,-0.998321533203125,15880.92317329167,-0.0192391403592952,0.0212601969898479,-0.0321244553540289,-0.0251431725919246,-0.0111016863957047,0.0027662185020744,0.0008165724575519,-0.0048820190131664,-0.0025423169136047,-0.0159576461938589,0.0107825293123663,-0.0097883621568404,0.9997666117270796
15880.93808329167,0.0221710205078125,0.0287017822265625,-1.000137329101562,15880.93311329167,-0.0192207213156141,0.0212243739597308,-0.0324863367828218,-0.048758752644062,0.0021549966186285,0.0017685983330011,-0.0003833416849374,-0.0057319924235343,0.0009257197380065,-0.0161388202328014,0.0107661830492307,-0.0097807611253863,0.9997639092653288
15880.94802229167,0.020904541015625,0.02911376953125,-1.002609252929688,15880.94305329167,-0.0192197448294763,0.0212875876713874,-0.0330574876459033,-0.063592828810215,0.0120740067213773,-0.0044115330092608,0.0008966643363237,-0.0043497122824192,-0.0009101033210754,-0.0164240250234323,0.0108004688384428,-0.0097837774019851,0.9997588382120396
15880.95796229167,0.0231475830078125,0.0300445556640625,-1.002975463867188,15880.95299229167,-0.0192263386072756,0.0213528757238555,-0.0337203564804446,-0.0696286186575889,-0.0005022380501031,-0.0010604774579405,-0.0004345811903476,-0.0046002231538295,-0.0034055709838867,-0.0167550232984765,0.0108362846937926,-0.0097910935052226,0.9997529616966976
15880.96790229167,0.0226898193359375,0.029144287109375,-1.00518798828125,15880.96293229167,-0.0192402962843014,0.0212464611545375,-0.034373423239178,-0.064372070133686,-0.0197514686733484,-0.0008949623443186,0.0019152611494064,-0.0043221302330493,-0.0037916898727416,-0.0170819221346499,0.0107862890812467,-0.0098005937941436,0.999747874086222
15880.97784229167,0.0221405029296875,0.03204345703125,-1.00469970703125,15880.97287229167,-0.0192419130201735,0.0209873975947405,-0.0350074102370101,-0.0665569305419921,-0.0304800122976303,-0.0018156170845031,0.0017168149352073,-0.0058559998869895,-0.0060207843780517,-0.0174000961618863,0.0106597944847999,-0.0098024614874438,0.9997437809706976
15880.98778129167,0.0203094482421875,0.030792236328125,-1.0010986328125,15880.98281129167,-0.0192432145809956,0.0207544021267421,-0.0356394267295185,-0.0622316896915435,-0.0159817636013031,-0.0008108061738312,0.0014007594436407,-0.0035884529352188,-0.0055499076843261,-0.0177171591414394,0.0105463198578947,-0.0098043099048713,0.999739390170323
15880.99772129167,0.0200653076171875,0.0326690673828125,-1.00323486328125,15880.99275129167,-0.019240894485396,0.0206981347457567,-0.0362088782732734,-0.0556832402944564,0.0019469037652015,0.0001758951693773,-0.000373650342226,-0.0054087601602077,-0.0019681453704833,-0.0180021005173638,0.0105208594553338,-0.0098055493109936,0.9997344755647648
15881.00766129167,0.0227813720703125,0.032623291015625,-1.006301879882812,15881.00269129167,-0.019233416781547,0.0207675335683813,-0.0367214630694238,-0.048252485692501,0.0054385736584663,-0.0008531506173312,-0.0006867442280054,-0.0040441714227199,-0.0041244626045227,-0.0182580238078654,0.0105578976164514,-0.0098050515466557,0.9997294781046964
15881.01760029167,0.0232086181640625,0.03607177734375,-1.005142211914062,15881.01263129167,-0.0192254703965723,0.0206824130017528,-0.0370438064273634,-0.0187345426529645,-0.0212385766208171,-0.0011879100929945,0.0021146144717931,-0.0044120699167251,-0.0072016716003417,-0.0184196102629773,0.0105167938207517,-0.0098019394763045,0.99972703933784
15881.02754029167,0.02069091796875,0.0325775146484375,-1.0003662109375,15881.02257029167,-0.0192376341069373,0.0204012075294852,-0.0371033175446865,0.0028788740746676,-0.0310604479163885,-0.0002281069755554,0.0028228554874658,-0.0010230578482151,-0.0060383677482604,-0.0184506723676556,0.0103766217171163,-0.0098057276824387,0.999727913885844
15881.03748029167,0.0196685791015625,0.032684326171875,-0.999908447265625,15881.03251029167,-0.0192429849105384,0.0202436311716163,-0.0370226780604118,0.0118127148598432,0.0011840406805276,-0.0003250460140407,0.0004625339061021,-0.0044367350637912,-0.0012562274932861,-0.0184111106634982,0.0102975253762333,-0.0098065490861506,0.9997293275077862
15881.04742029167,0.0196990966796875,0.0337371826171875,-1.00146484375,15881.04245029167,-0.0192460740699657,0.0204353410904598,-0.0368571633545364,0.0205031409859657,0.0319734439253807,0.0008840295486152,-0.0007514711469411,-0.0041645243763923,-0.0007961988449096,-0.0183274190117198,0.0103926020590217,-0.0098090271662592,0.9997298717864426
15881.05735929167,0.02392578125,0.0334930419921875,-1.004928588867188,15881.05239029167,-0.0192310328546724,0.0208103738571601,-0.036574423488997,0.0364719852805137,0.0349948033690452,0.0031128288246691,-0.0010958649218082,-0.0028291158378124,-0.0023499727249145,-0.0181843257219429,0.0105785971743074,-0.0098034988748904,0.9997306433575688
15881.06729929167,0.02410888671875,0.033966064453125,-1.008636474609375,15881.06232929167,-0.0192103913301371,0.0210323197428266,-0.0361248618028224,0.0527710691094398,0.0063461791723966,-0.0009514214470982,0.0029087271541357,-0.0026239901781082,-0.005802035331726,-0.0179586256895807,0.0106872362783359,-0.0097928741936957,0.999733727515078
15881.07723929167,0.022216796875,0.03302001953125,-1.004165649414062,15881.07226929167,-0.0192111488782708,0.0209818971333933,-0.0355435108265793,0.0629944056272506,-0.0132216624915599,0.0008856272324919,0.0031417738646268,-0.001569990068674,-0.009488046169281,-0.0176682688190083,0.0106593017972063,-0.0097898014747806,0.999739217074374
15881.08717929167,0.0205230712890625,0.0303955078125,-0.9998931884765624,15881.08220929167,-0.0192151112433877,0.020873062821979,-0.0349391156488595,0.0598718523979187,-0.007961687631905,0.001382706221193,0.0013579800724983,-0.0019120164215564,-0.0049936771392822,-0.0173666612198893,0.0106020876219035,-0.009787719505268,0.9997450435907262
15881.09711829167,0.0193939208984375,0.0314483642578125,-1.002166748046875,15881.09214829167,-0.0192182025508889,0.0209018643460849,-0.0343665757556263,0.0565751269459724,0.0174097158014774,0.0018929680809378,-0.000364938750863,-0.0039643310010433,-0.0007019639015197,-0.0170803046652967,0.0106138128333343,-0.0097865710320229,0.9997498966741262
15881.10705829167,0.0217132568359375,0.030303955078125,-1.00347900390625,15881.10208829167,-0.0192059677059702,0.021130527210285,-0.0338427566458096,0.0528738647699356,0.0292878150939941,0.0031598336063325,-0.0017229430377483,-0.0023879557847976,-0.0029624700546264,-0.0168174055063378,0.0107255433802286,-0.0097796838989817,0.999753260263032
15881.11699829167,0.0229644775390625,0.0289459228515625,-1.003616333007812,15881.11202829167,-0.0192039354552752,0.0214035525730027,-0.0333392980000281,0.0484905689954757,0.0221052691340446,0.0022687399759888,0.0003232229501008,-0.0030291974544525,-0.0042635798454284,-0.0165644134108498,0.0108596340462948,-0.0097783111070183,0.99975603142512
15881.12693729167,0.02435302734375,0.02923583984375,-1.005477905273438,15881.12196829167,-0.0192117694090842,0.0215107515190304,-0.0328890573625304,0.0412579551339149,-0.0007573366165161,0.000609990209341,0.0014670100063085,-0.003937229514122,-0.0043883323669433,-0.0163387803978123,0.0109111635790102,-0.0097807301862634,0.9997591404991752
15881.13687729167,0.0225677490234375,0.0255889892578125,-1.002029418945312,15881.13190729167,-0.019208927505494,0.0213954385340797,-0.03254231023469,0.0263229478150606,-0.0178084932267665,0.0023482353426516,0.0029705427587032,-0.0033007562160491,-0.0062361359596252,-0.0161660261595615,0.0108518626906334,-0.0097765399109758,0.9997626860799674
15881.14681729167,0.0204315185546875,0.0272064208984375,-1.000686645507812,15881.14184729167,-0.0192188193236356,0.0212441817976008,-0.0323871859007264,0.0042440104298293,-0.0150774857029318,-0.0002949521876871,0.0013362988829612,-0.006792563945055,-0.0027793645858764,-0.0160891682488281,0.0107756005211391,-0.0097794505055163,0.9997647117429592
15881.15675729167,0.02117919921875,0.02813720703125,-1.001480102539062,15881.15178729167,-0.0192258101193326,0.0211966265607703,-0.0324438428112111,-0.0167068112641573,0.0033324137330055,-0.0013125459663569,-0.0007523745298385,-0.0052317604422569,-0.0014373660087585,-0.0161176852341008,0.0107521522438081,-0.0097828583796565,0.9997644615199424
15881.16669629167,0.0213165283203125,0.0289306640625,-1.002151489257812,15881.16172729167,-0.0192178632888511,0.0212934177431717,-0.0327091923752141,-0.0358514785766601,0.0128621347248554,-9.015481919050217e-05,-0.0001012273132801,-0.0045661814510822,-0.0022415518760681,-0.0162498982489964,0.0108017238438314,-0.0097810573032055,0.9997618164440942
15881.176637375,0.0224761962890625,0.027130126953125,-1.003326416015625,15881.17166629167,-0.0192120063077581,0.0214428703331591,-0.033103095859725,-0.0429402813315391,0.0122802332043647,-0.0020172183867543,-0.0001129601150751,-0.0041664130985736,-0.0029290914535522,-0.016446105453015,0.0108782423958515,-0.0097814246449256,0.9997576951314344
15881.186577375,0.0242767333984375,0.0286712646484375,-1.003158569335938,15881.181607375,-0.019215436068945,0.021441582807081,-0.0335422582158005,-0.0434545353055,-0.0118327243253588,-0.0017947112210094,0.0010483097285032,-0.0064058676362037,-0.0041186213493347,-0.0166656209528762,0.0108796966764461,-0.0097854466860077,0.9997540338388946
15881.196517375,0.0233001708984375,0.029510498046875,-1.003143310546875,15881.191547375,-0.0192352382805018,0.0212466702835334,-0.0339658786346393,-0.0438470840454101,-0.0231716651469469,-0.0009393037762492,0.0030439067631959,-0.0052881091833114,-0.003960907459259,-0.0168782268824432,0.0107844283504719,-0.0097959367108258,0.9997513698253307
15881.206456375,0.02178955078125,0.031005859375,-1.00250244140625,15881.201486375,-0.0192496392942685,0.021029390221701,-0.0343819079246812,-0.0425876751542091,-0.0173652414232492,-0.000540894921869,0.0022847484797239,-0.0048646666109561,-0.0039552450180053,-0.0170871766987223,0.010677900476566,-0.0098034536943122,0.9997489469284
15881.216396375,0.0210113525390625,0.0306243896484375,-1.002334594726562,15881.211426375,-0.0192465081243539,0.0209397359908974,-0.0348062015555223,-0.0421897992491722,-0.0009101033210754,-0.0008431635797023,0.0008640196174383,-0.0037933401763439,-0.003327190876007,-0.0172997260916006,0.0106350600879008,-0.0098033074748991,0.9997457902543396
15881.226336375,0.0205078125,0.0316925048828125,-1.002639770507812,15881.221366375,-0.0192426697947843,0.0210102666078372,-0.0352044318885221,-0.0399093329906463,0.0097541268914937,0.0005121189169585,1.564249396324158e-05,-0.0045727975666522,-0.0031747817993164,-0.0174984671882079,0.0106721629170772,-0.0098040575263336,0.9997418397797406
15881.236276375,0.022796630859375,0.032806396484375,-1.00604248046875,15881.231306375,-0.0192306689931908,0.0210736978477259,-0.0355655936877059,-0.0361510813236236,0.0017622467130422,0.0006498047150671,-0.0005510095506906,-0.0038656219840049,-0.0034940242767333,-0.0176787541824224,0.0107054670845033,-0.0098004847510745,0.999738397160646
15881.246215375,0.0238189697265625,0.0332794189453125,-1.002456665039062,15881.241245375,-0.0192181647339125,0.0210234321861477,-0.035860833224014,-0.0255772676318883,-0.0129010509699583,-0.0011928365565836,0.0017882548272609,-0.0030467770993709,-0.0069062709808349,-0.0178266490675236,0.0106816209253255,-0.0097953161568304,0.9997360610805944
15881.256155375,0.02197265625,0.03192138671875,-1.002090454101562,15881.251185375,-0.0192251649638344,0.0208324931469313,-0.0360860964468212,-0.0200573336333036,-0.0219089277088642,0.0003739008679986,0.0030015371739864,-0.0027988739311695,-0.0033245682716369,-0.0179401486560988,0.0105872998471862,-0.0097982664579122,0.99973504541096
15881.266095375,0.020782470703125,0.032684326171875,-1.002273559570312,15881.261125375,-0.0192272333668694,0.0206655397316881,-0.0362656614456872,-0.0197542663663625,-0.0112034529447555,-0.0002214489504694,0.0013221688568592,-0.0043363496661186,-0.0029613375663757,-0.0180307161404421,0.0105047108243732,-0.0097987154774389,0.9997342013601456
15881.276034375,0.02227783203125,0.0328216552734375,-1.0047607421875,15881.271065375,-0.0192246351303076,0.0206544562816661,-0.0364141861601923,-0.0133589524775743,0.0053672678768634,1.261942088603973e-07,0.0001431666314601,-0.0037218369543552,-0.0031496286392211,-0.0181050271508273,0.010499847016595,-0.0097980706900558,0.9997329032749654
15881.285974375,0.0208892822265625,0.0332183837890625,-1.0032958984375,15881.281004375,-0.019210128568269,0.0207599552854869,-0.036479431544038,-0.0013025552034378,0.0132699310779571,0.0005143824964761,0.001533169299364,-0.003649715334177,-0.0056413412094116,-0.0181372006385925,0.0105527580438591,-0.009792107056231,0.99973183581599
15881.295914375,0.0235595703125,0.0331878662109375,-1.002883911132812,15881.290944375,-0.0192028495406424,0.0208310185244579,-0.0363942171261296,0.015076152049005,0.0024002399295568,0.0031426562927663,7.355585694313049e-05,-0.0031678266823291,-0.0041748881340026,-0.0180942944190154,0.0105878126782333,-0.0097886762403825,0.9997323249901808
15881.305854375,0.021759033203125,0.03179931640625,-1.003341674804688,15881.300884375,-0.0191875787905617,0.0208150293917379,-0.0361659063654857,0.0267471894621849,-0.0033117411658167,0.0001960019581019,0.0027596466243267,-0.0029701814055442,-0.0037543177604675,-0.0179803285626053,0.0105786090100395,-0.0097797305866207,0.9997345393373132
15881.315793375,0.0208892822265625,0.0316314697265625,-1.001190185546875,15881.310823375,-0.0191855863920396,0.0208118514313187,-0.0358895746130965,0.0286819748580455,0.0062567293643951,0.0007866909727454,0.0009620767086744,-0.0040825828909873,-0.0042020082473754,-0.0178422253561777,0.0105757037117033,-0.0097772928751163,0.9997370347141395
15881.325733375,0.0220184326171875,0.0322418212890625,-1.003250122070312,15881.320763375,-0.0191889163485388,0.0209316614382443,-0.0355850738241421,0.0314117148518562,0.0159942805767059,-0.0013040234334766,-2.760812640190125e-05,-0.0039461217820644,-0.0020421743392944,-0.0176894112594151,0.0106341909348055,-0.0097784594829648,0.999739096900446
15881.335673375,0.0232086181640625,0.0321197509765625,-1.00396728515625,15881.330703375,-0.0191855768641799,0.0210880778422338,-0.0352620138206855,0.0339979119598865,0.013868810608983,0.000283486675471,0.0009450186043977,-0.0030129104852676,-0.0040939450263977,-0.0175271756135764,0.0107108300594071,-0.0097764981469946,0.9997411649766348
15881.345613375,0.02227783203125,0.031158447265625,-1.003326416015625,15881.340643375,-0.0191846310297422,0.0212027432979336,-0.0349276122176889,0.0358810350298881,0.0092562492936849,0.0032037757337093,0.0020203869789838,-0.0028007850050926,-0.0048018097877502,-0.0173594606691322,0.0107665664810857,-0.0097752854695618,0.9997435750800212
15881.355552375,0.0220794677734375,0.0310516357421875,-1.002365112304688,15881.350582375,-0.0191770943946472,0.0212248256552322,-0.0345588132841018,0.0375833213329315,-0.0026211831718683,0.0024956413544714,0.0010672658681869,-0.0033935159444808,-0.0041486024856567,-0.0171750409779762,0.0107758061549554,-0.0097697844369105,0.9997466711700084
15881.365492375,0.021697998046875,0.030853271484375,-1.002761840820312,15881.360522375,-0.0191760738102198,0.021194058599013,-0.0341767029630706,0.0378664210438728,-0.0006089322268962,-0.000161794014275,0.0008993633091449,-0.0031184405088424,-0.0031735301017761,-0.0169841882516982,0.0107586206234296,-0.0097670169099313,0.9997501869544902
15881.375432375,0.0211944580078125,0.0297698974609375,-1.00347900390625,15881.370462375,-0.0191899247489021,0.0212328800256674,-0.0338096617101765,0.037253625690937,0.0062457788735628,0.0018941662274301,0.0004788395017385,-0.0029499754309654,-0.0035586357116699,-0.0168004482352613,0.0107764166322002,-0.0097723522329831,0.9997530561017398
15881.385371375,0.021697998046875,0.0294647216796875,-1.002853393554688,15881.380402375,-0.0191917714349637,0.0213295062706962,-0.0334199456643559,0.0377266034483909,0.0107003822922706,0.0004201065748929,-0.0001215282827615,-0.0036438554525375,-0.0042647123336791,-0.0166051545710911,0.0108228983085474,-0.009772040303053,0.9997558646646412
15881.395311375,0.0206146240234375,0.031219482421875,-1.004669189453125,15881.390341375,-0.019190304972482,0.02143552798918,-0.0330644272756348,0.0325142666697502,0.0087584052234888,0.0003111832775175,0.0002758204936981,-0.0035937093198299,-0.0036295652389526,-0.016426929621839,0.010874211573313,-0.0097703120833865,0.9997581663293108
15881.405251375,0.022552490234375,0.028106689453125,-1.0028076171875,15881.400281375,-0.0191835432363596,0.0214861045892138,-0.0327610486565152,0.0257245358079671,0.0013075452297925,0.001060330774635,-0.0008583068847656,-0.0015357322990894,-0.0054364800453186,-0.0162750655691944,0.0108980100052176,-0.009765741773943,0.9997604678976012
15881.415191375,0.024322509765625,0.027130126953125,-1.0013427734375,15881.410221375,-0.0191911441540583,0.0214637344625146,-0.0325586666969604,0.0140337906777858,-0.0043314322829246,0.0003633815795183,0.0011017713695764,-0.0044462531805038,-0.0035678148269653,-0.0161739664438713,0.0108859365562976,-0.0097682895092051,0.9997622030711916
15881.425130375,0.0207366943359375,0.027587890625,-1.001419067382812,15881.420161375,-0.0191797771446426,0.0214081037443248,-0.0324822604097788,-0.000761667266488,-0.0045778732746839,0.0006340914405882,0.0029273275285959,-0.0053464472293853,-0.0020992755889892,-0.0161361048777983,0.0108576757019848,-0.0097617540872326,0.9997632342058468
15881.435070375,0.02191162109375,0.028289794921875,-1.003890991210938,15881.430100375,-0.0191791239983531,0.021406640613227,-0.0325876335614776,-0.0201958194375038,0.0030001513659954,0.000930767506361,-0.0006569530814886,-0.0049940012395381,-0.0021789669990539,-0.0161887896236441,0.0108574348707878,-0.0097619712571191,0.9997623950103888
15881.445010375,0.021575927734375,0.027496337890625,-1.001190185546875,15881.440040375,-0.0191873173468509,0.0214477870769125,-0.0328193018831145,-0.0285930316895246,0.002069741487503,-0.0016126842238008,0.0004770196974277,-0.004523642361164,-0.004659354686737,-0.0163043507110858,0.010879159995363,-0.0097676235449895,0.9997602496353604
15881.454950375,0.02252197265625,0.02911376953125,-1.0037841796875,15881.449980375,-0.0191837367481842,0.0214467169171039,-0.033124374711873,-0.0344922021031379,-0.0023505734279751,0.0006350236944854,0.0001426097005605,-0.0056220069527626,-0.0019685626029968,-0.0164568773905909,0.0108800329543414,-0.0097674373453953,0.9997576303574056
15881.464889375,0.023284912109375,0.0300750732421875,-1.003067016601562,15881.459919375,-0.0191860067563696,0.0213810235860876,-0.0335110743546901,-0.0405857786536216,-0.0112678008154034,-0.0020213462412357,0.001154575496912,-0.0043910592794418,-0.0045740604400634,-0.0166504886701003,0.0108490324858008,-0.0097700668287957,0.999754773258658
15881.474829375,0.0218353271484375,0.031219482421875,-1.00439453125,15881.469859375,-0.0191966168685896,0.0212413261557256,-0.0339091197227682,-0.0420257523655891,-0.0146449552848935,-0.002511900383979,0.002057384699583,-0.0038275755941867,-0.0038673281669616,-0.0168500886221333,0.01078116371359,-0.0097762889038679,0.9997520793920744
15881.484769375,0.021331787109375,0.0318145751953125,-1.0020751953125,15881.479799375,-0.019204039164,0.0211114674201153,-0.0343066039731105,-0.0397343635559082,-0.0117440074682235,-0.0018955119885504,0.0007378421723842,-0.003080416470766,-0.0052056312561035,-0.0170493774913514,0.0107181854626953,-0.0097809702752803,0.9997492985566026
15881.494708375,0.022216796875,0.029449462890625,-1.003448486328125,15881.489739375,-0.0192201035218542,0.0210649629391118,-0.0347032334370143,-0.0426507964730262,-0.0019475696608424,-0.001069665653631,0.0002810563892126,-0.0028817169368267,-0.0028989911079406,-0.0172477829550308,0.0106969443986351,-0.0097906585475246,0.999746114774561
15881.504648375,0.022064208984375,0.0329742431640625,-1.003433227539062,15881.499678375,-0.0192173627230068,0.0210660735505617,-0.0350938631921392,-0.0397796407341957,0.0005294699221849,0.0006394181400537,0.0011652428656816,-0.0056372247636318,-0.0042859315872192,-0.017443057679325,0.0106993162473526,-0.0097913220640373,0.9997427026715036
15881.514588375,0.022735595703125,0.0320281982421875,-1.004898071289062,15881.509618375,-0.0192181836678543,0.021047557056784,-0.0354581283406008,-0.033411756157875,-0.0066584022715687,-0.0026772827841341,0.0010314267128705,-0.0024764835834503,-0.0042831301689147,-0.0176252301766515,0.0106917835760045,-0.0097934564699015,0.9997395578523924
15881.524528375,0.0223236083984375,0.0316009521484375,-1.002090454101562,15881.519558375,-0.0192208331989239,0.0209622083227282,-0.0357651540459207,-0.0280992817133665,-0.0126166921108961,0.0019715311937034,0.001788318157196,-0.0037293620407581,-0.0057570934295654,-0.01777910733221,0.0106505900542225,-0.0097956111415776,0.9997372472563846
15881.534467375,0.07470703125,-0.117828369140625,-0.9968414306640624,15881.529498375,-0.0190928232602176,0.0208181686261244,-0.0360352435072094,-0.0395229086279869,-0.0167512502521276,0.0500618293881416,0.0015204511582851,-0.0044265203177928,-0.002956211566925,-0.0179154995371103,0.0105787147418007,-0.0097317246769573,0.9997362005057222
15881.544407375,0.1059112548828125,-0.1815032958984375,-1.008926391601562,15881.539437375,-0.0130579528695215,0.0199596221914824,-0.0387295649641441,-0.4894405603408813,-0.2252428531646729,1.127783894538879,0.0547636933624744,-0.1565482765436172,0.0022096633911132,-0.0192970516355019,0.0101039790891601,-0.0067206185371562,0.9997401205054366
15881.554347375,0.039031982421875,-0.124603271484375,-0.99615478515625,15881.549377375,0.0031692513215403,0.0180289542176182,-0.0433516373505099,-0.4933119714260101,-0.2374489158391953,2.115023612976074,0.0879002064466476,-0.2248413860797882,-0.0100282430648803,-0.0216874956767707,0.0089778826426721,0.0013888104560053,0.9997234698325734
15881.564287375,-0.0393218994140625,-0.0276947021484375,-0.976226806640625,15881.559317375,0.0283627267808864,0.0184714304255612,-0.0475153710747271,-0.4243009686470032,0.118927888572216,2.919999599456787,0.020582441240549,-0.1721007972955704,0.0025461912155151,-0.023882980533371,0.0088951901188009,0.013956908048462,0.9995777621238016
15881.574226375,-0.0821380615234375,0.0372314453125,-0.99786376953125,15881.569256375,0.0605951467864283,0.0229323584308885,-0.0507570002813078,-0.3706981837749481,0.4310128092765808,3.56380033493042,-0.0622227266430854,-0.0784299373626709,0.0222227573394775,-0.025709686545723,0.010688318664181,0.0299903683943021,0.9991623632481322
15881.584166375,-0.0382080078125,0.05950927734375,-1.027175903320312,15881.579196375,0.0998791986247247,0.0289714846758237,-0.0530639157226149,-0.2820724546909332,0.3415645658969879,4.356697559356689,-0.1110647320747375,-0.0158075988292694,0.0003096461296081,-0.0272158213917264,0.0131379340220905,0.0495122394192097,0.9983162515023252
15881.594106375,0.019256591796875,0.10321044921875,-1.03839111328125,15881.589136375,0.1481789774605516,0.0330356395251951,-0.0545405156688798,-0.3454562127590179,-0.0719343125820159,5.343069553375244,-0.0711885392665863,0.0049957670271396,-0.0292076468467712,-0.0284105331416548,0.0144475659925983,0.0735349763260828,0.9967831696083898
15881.604045375,0.1442718505859375,0.1409454345703125,-1.039794921875,15881.599076375,0.2048119078792549,0.0321548446854857,-0.056138688614742,-0.3017531931400299,-0.6833165287971497,6.038839817047119,-0.0128420777618885,0.0471012182533741,-0.0404825806617736,-0.0295578469029682,0.0131175066368466,0.1017247454887867,0.994286832967924
15881.613985375,0.30303955078125,0.120452880859375,-1.039306640625,15881.609015375,0.2724485100381527,0.0265342957060768,-0.0555071937381453,-0.0115879494696855,-1.225040078163147,7.626478672027588,0.1177815198898315,0.0854667127132415,-0.0416865348815918,-0.0292915096255033,0.0093705759332752,0.1353743393874398,0.9903171009395362
15881.623925375,0.195831298828125,0.0287933349609375,-1.016082763671875,15881.618955375,0.3546416548972292,0.0175676155394885,-0.0520233825575046,0.506512463092804,-1.306883454322815,8.705497741699219,0.2854965925216675,0.0684529393911361,-0.0408136248588562,-0.0271488057720085,0.0040554531274877,0.1761016965432989,0.9839892082064696
15881.633865375,0.17840576171875,0.0043182373046875,-0.967926025390625,15881.628895375,0.4416339948545753,0.0136911382300167,-0.0406436563551536,1.428460836410522,-0.2702000439167023,8.783727645874023,0.1821518838405609,-0.0118391551077365,-0.0170022249221801,-0.0213256036641166,0.0022273037680979,0.2188407770743724,0.9755249555275368
15881.643804375,0.1715545654296875,0.0141143798828125,-0.984527587890625,15881.638835375,0.5288618745376185,0.0184684339340283,-0.0227145289498392,1.886442422866821,0.6485131978988647,8.80575180053711,0.1599431186914444,-0.0183943584561348,0.0316455364227294,-0.0133750635678403,0.0059444023159874,0.2612307978806206,0.965165418825496
15881.653744375,0.1432342529296875,0.048980712890625,-0.9449310302734376,15881.648774375,0.6158893476764198,0.0294512319894606,-0.0042707272472317,1.310698986053467,1.253468871116638,8.781889915466309,0.1421078443527222,0.0098436493426561,0.0150296688079834,-0.0064978623565945,0.0133852027393408,0.3030371093855582,0.9528626399447284
15881.663684375,0.145355224609375,0.0553741455078125,-0.9547882080078124,15881.658714375,0.7025883881676533,0.0411811607147845,0.0062067333628358,0.1186765804886818,1.023836731910706,8.71877384185791,0.1020655035972595,0.0551873929798603,0.0542019009590148,-0.0041717407224386,0.0203992978101234,0.3440986418608341,0.9387026126295916
15881.673624375,0.1301116943359375,0.0140533447265625,-0.9823150634765624,15881.668654375,0.7890684975744721,0.0469232034582666,0.0052288690046303,-1.041943073272705,0.1904168128967285,8.662094116210938,0.0984498560428619,0.0606029778718948,0.0440974831581115,-0.0066043558738756,0.0226617732014877,0.3843277799677887,0.9228949063773452
15881.683563375,0.096527099609375,0.0098114013671875,-1.042861938476562,15881.678593375,0.875556892030771,0.0434565670369562,-0.0052886663870585,-1.802159190177917,-0.875251829624176,8.63514232635498,0.086669385433197,0.0087646916508674,0.0167269110679626,-0.0116048743062179,0.0185568532076901,0.4237748816769188,0.905503055151972
15881.693503375,0.0655517578125,0.0126953125,-1.067520141601562,15881.688533375,0.962042629071414,0.0314695364046084,-0.0207519328165405,-1.892546653747559,-1.681799173355103,8.641458511352539,0.0650695115327835,-0.0109390504658222,-0.0435722470283508,-0.0164767746965079,0.0091477828751272,0.4624579382343326,0.8864408707886144
15881.703443375,0.0219268798828125,0.0513458251953125,-1.0540771484375,15881.698473375,1.048270414536541,0.0149767171017999,-0.0350839002665086,-1.344703197479248,-2.035760402679443,8.632698059082031,0.0505847930908203,-0.0223813988268375,-0.0682476162910461,-0.0189329088825464,-0.0022963859362819,0.5002597486697729,0.8656652990990873
15881.713383375,0.014190673828125,0.09197998046875,-0.979736328125,15881.708413375,1.134181363215428,1.822518862623622e-05,-0.0431561873973501,-0.4492869973182678,-1.592887043952942,8.6284818649292,0.0219086464494466,0.008203025907278,-0.0550082325935363,-0.01820389948668,-0.0115827450215559,0.5370551873882833,0.8432711349610514
15881.723322375,0.002410888671875,0.1234588623046875,-0.9530487060546876,15881.718352375,1.220043578359874,-0.0076537042680722,-0.043273623645798,0.4620720148086548,-0.6890506148338318,8.63449478149414,0.0218371115624904,0.0487198606133461,0.019298255443573,-0.0155409574570289,-0.0155302378892228,0.5728149047521509,0.8193901746812493
15881.733262375,0.0373077392578125,0.1280517578125,-0.932861328125,15881.728292375,1.306166606443107,-0.0058573667997678,-0.0360799509670367,1.061701655387878,0.4047114551067352,8.671967506408691,0.0082643842324614,0.0873867347836494,0.0462833642959594,-0.0125474758274702,-0.0132867555772293,0.6075785809484701,0.7940492426168128
15881.743202375,0.07537841796875,0.1140594482421875,-0.9354095458984376,15881.738232375,1.392615665552449,0.0061809318451763,-0.0246579604201644,1.150916576385498,1.480088353157043,8.71251106262207,0.0311286989599466,0.1033962965011597,0.0668156147003173,-0.0114407388190664,-0.0055365703528161,0.6413083431955354,0.7671779121447531
15881.753141375,0.0825653076171875,0.131866455078125,-1.009857177734375,15881.748172375,1.479141888005128,0.0254507582009042,-0.0138942154777988,0.6894614696502686,1.857688426971436,8.718811988830566,0.049932837486267,0.1001656800508499,0.0641701221466064,-0.0137078706631749,0.0047187603575327,0.6738348643351932,0.7387397877422851
15881.763081375,0.1444244384765625,0.108123779296875,-1.016006469726562,15881.758111375,1.565486711916061,0.0434743891522945,-0.0069890815386483,0.0315864160656929,1.514792680740356,8.675625801086426,0.0391056425869464,0.1248774379491806,-0.0108264088630676,-0.0178053320031605,0.0129461039568142,0.7050022979497748,0.7088632414387624
15881.773021375,0.1473846435546875,0.078094482421875,-1.044189453125,15881.768051375,1.651523689643005,0.0546527094935935,-0.0057855927119527,-0.6165337562561035,0.5381252765655518,8.616462707519531,0.0897998213768005,0.1023382246494293,-0.0175162553787231,-0.0220446239443149,0.0163992123137488,0.7347334291603029,0.6777992563668324
15881.782961375,0.155517578125,0.050140380859375,-1.05267333984375,15881.777991375,1.737329403736148,0.054711467743991,-0.0089041280736791,-0.9317929148674012,-0.64329594373703,8.583396911621094,0.0927026122808456,0.0691904872655868,-0.0457253456115722,-0.0237566601019306,0.014267506421182,0.7630953599091967,0.6456914856522342
15881.792900375,0.134429931640625,0.0323638916015625,-1.074676513671875,15881.787931375,1.82298469585012,0.0439834224019114,-0.0140643974882745,-0.8925299644470215,-1.655936360359192,8.577010154724121,0.1115526631474495,0.0360764600336551,-0.0537392497062683,-0.0216874484160702,0.0079129809544708,0.7901133685950185,0.6125256734891648
15881.802840375,0.0826263427734375,0.0391845703125,-1.056381225585938,15881.797870375,1.908479097480346,0.0256125238065825,-0.0178834310178976,-0.4137583076953888,-2.224709510803223,8.586982727050781,0.1088242828845978,0.0144814252853393,-0.0751643180847168,-0.0156174652610414,0.0001098385210426,0.8157085451004171,0.5782522942673632
15881.812780375,0.0682220458984375,0.0231475830078125,-0.968719482421875,15881.807810375,1.993877736432041,0.0059468219679842,-0.0180208507651295,0.1190765872597694,-1.858793377876282,8.588543891906738,0.0766805037856102,0.0211647115647792,-0.0565612912178039,-0.0073884569131203,-0.0059528127329923,0.8397607696860485,0.5428737210387169
15881.822720375,0.0267791748046875,0.050140380859375,-0.9299468994140624,15881.817750375,2.079291727127099,-0.0076961288828427,-0.0160033829844351,0.300180047750473,-1.134540915489197,8.594350814819336,0.0759170949459075,0.0071449019014835,0.031122863292694,-0.0007352053680609,-0.0088482099160463,0.8622064730916351,0.506479002995305
15881.832659375,0.004547119140625,0.0625,-0.901763916015625,15881.827689375,2.164764299480097,-0.0125609275357405,-0.0134507834539276,0.3670472204685211,-0.0772365927696228,8.60070514678955,0.039338618516922,0.0366900227963924,0.0698837637901306,0.0023903343824263,-0.0088857550943526,0.8830605347613535,0.469168967241786
15881.842599375,0.0092010498046875,0.096893310546875,-0.9290618896484376,15881.837629375,2.250394004582083,-0.007462166815736,-0.0115096158814578,0.189760610461235,0.8493128418922424,8.622617721557617,0.0120087079703807,0.0509906597435474,0.0981420278549194,0.0008864049192652,-0.0068008626942364,0.9023405419893638,0.4309692302170836
15881.852539375,0.038604736328125,0.076995849609375,-0.96405029296875,15881.847569375,2.336214425370221,0.0048377187381537,-0.0115536060148901,-0.1211021915078163,1.402521967887878,8.640732765197754,0.0043636593036353,0.0853399857878685,0.070859670639038,-0.0044892105524667,-0.0043667550324322,0.919986953092618,0.3918989341990723
15881.862478375,0.08599853515625,0.139434814453125,-1.008544921875,15881.857509375,2.422124286830672,0.0210974719348305,-0.0133355469836428,-0.5302398800849915,1.51791775226593,8.632225036621094,0.0175106935203075,0.0636607185006141,0.0356382727622985,-0.0122201919273989,-0.0025273073229647,0.9358927459268624,0.3520638055100401
15881.872418375,0.1077117919921875,0.1252593994140625,-1.068252563476562,15881.867448375,2.507868538226898,0.0342735137147217,-0.0179620071715322,-0.8516908884048462,0.7327367663383484,8.5866060256958,0.0517372451722621,0.1214737966656685,-0.0092933773994445,-0.0190801094370052,-0.0031934399125778,0.949991989041626,0.3116742254379474
15881.882358375,0.1219635009765625,0.0870208740234375,-1.072662353515625,15881.877388375,2.593308728396357,0.0385682413743258,-0.0235688898550174,-0.8696579337120056,-0.2230058461427689,8.553383827209473,0.0691638141870498,0.1016927137970924,-0.0692737102508544,-0.0217511998750469,-0.0061220845719584,0.9623505389005907,0.2708706910901641
15881.892298375,0.1168060302734375,0.0946502685546875,-1.089920043945312,15881.887328375,2.67845000514767,0.0336271760629875,-0.0268835678637885,-0.3884894251823425,-1.16756808757782,8.540587425231934,0.0883548036217689,0.0601405650377273,-0.0735887885093689,-0.0194469892045083,-0.0092224288726489,0.9730296640914936,0.2296740103958066
15881.902237375,0.1262664794921875,0.0711212158203125,-1.050674438476562,15881.897268375,2.76339529933129,0.0216274916693191,-0.0244272809383072,0.366679459810257,-1.605762600898743,8.554980278015137,0.095186673104763,0.0702254399657249,-0.0904521346092224,-0.0129156339595822,-0.0099624131162845,0.98201851617005,0.1880783968248226
15881.912177375,0.09771728515625,0.0525665283203125,-1.004974365234375,15881.907207375,2.848383653438232,0.0077799057532386,-0.0168344135111791,0.8875545859336853,-1.47399365901947,8.563136100769043,0.1184877529740334,0.0542876198887825,-0.0508463382720947,-0.0050776396666187,-0.0077585305771,0.9892254164486556,0.1461059861620405
15881.922117375,0.0612335205078125,0.0372772216796875,-0.9498443603515624,15881.917147375,2.933497059598615,-0.0031112815474271,-0.0065691745471076,1.099079132080078,-0.8507843613624573,8.55994701385498,0.1008284986019135,0.0459974259138107,-0.0050007700920104,0.0012060820749557,-0.0034283823678979,0.9945858413942114,0.1038543850946957
15881.932057375,0.0596466064453125,0.0458831787109375,-0.9192962646484376,15881.927087375,3.018675155764327,-0.0079443595232633,0.0025639086775855,0.7620507478713989,-0.1229328513145447,8.552542686462402,0.0691777765750885,0.0398411527276039,0.0501208305358886,0.0040434040037485,0.0010355529877155,0.99810292199739,0.0614245994528093
15881.941996375,0.0329742431640625,0.0304107666015625,-0.934844970703125,15881.937026375,3.103812710471087,-0.0072102452515925,0.0067997328098731,0.2264853417873383,0.3492551743984222,8.558453559875488,0.0668566301465034,0.0526828840374946,0.0806546211242675,0.003668669912019,0.0033311352183582,0.9998090549621498,0.0189008693788517
15881.951936375,0.045928955078125,0.034637451171875,-0.9351654052734376,15881.946966375,-3.094227305521027,-0.0023055266558616,0.0059649073874979,-0.3072182834148407,0.7585138082504272,8.557453155517578,0.0352797359228134,0.0363756641745567,0.065134584903717,0.0010818089586044,0.0030089087764958,0.9997145531267904,-0.0236769023955862
15881.961876375,0.048858642578125,0.090057373046875,-0.989227294921875,15881.956906375,-3.009111157706847,0.0061587147387758,-6.401652975334517e-05,-0.9462592005729676,0.9098530411720276,8.554429054260254,0.0397702902555465,0.034573458135128,0.0648156404495239,-0.0030704803501659,-0.0002357673948521,0.9978021850495332,-0.0661919093151474
15881.971816375,0.07269287109375,0.07257080078125,-1.022354125976562,15881.966846375,-2.923982499712954,0.0135359872159227,-0.010976793608552,-1.357989430427551,0.5244579315185547,8.543987274169922,0.0353238955140113,0.0790808200836181,0.010620892047882,-0.0061318471446409,-0.0061907121641925,0.994052917677856,-0.1085494932981691
15881.981755375,0.05938720703125,0.1153411865234375,-1.072525024414062,15881.976785375,-2.838959673674979,0.0168711111154448,-0.023328064537798,-1.314476609230042,-0.2126386612653732,8.518492698669434,0.0558271631598472,0.0492448732256889,-0.022768497467041,-0.0065803702461129,-0.0128015532298548,0.9884858793546956,-0.1506268176042893
15881.991695375,0.0990447998046875,0.091766357421875,-1.057876586914062,15881.986725375,-2.754138972546253,0.0143237297002394,-0.0331792327255703,-0.9127447009086608,-0.7518443465232849,8.508878707885742,0.0450718663632869,0.0821680575609207,-0.0731779336929321,-0.0038333047304805,-0.0176567021570437,0.9811562063440212,-0.1923693100581511
15882.001635375,0.0683746337890625,0.074188232421875,-1.047256469726562,15881.996665375,-2.66944767770178,0.008023879002761,-0.0376727964995239,-0.1250513941049576,-1.051565051078796,8.505105972290039,0.0910267159342765,0.0541024841368198,-0.0586182475090026,0.0005053088965427,-0.019250890137751,0.972101410150352,-0.233769001107229
15882.011574375,0.0608367919921875,0.1217498779296875,-1.01324462890625,15882.006605375,-2.584793819118324,0.0017060615010914,-0.0351425619627382,0.5156713128089905,-0.8542783856391907,8.516356468200684,0.0666696429252624,0.0390529185533523,-0.0478753447532653,0.0040085779664567,-0.0171282412381196,0.9613518896305976,-0.2747601217326851
15882.021514375,0.0722808837890625,0.102874755859375,-1.018844604492188,15882.016544375,-2.500095307604347,-0.0032254148618232,-0.0272677985087719,1.083900213241577,-0.6791262030601501,8.519165992736816,0.0640610232949256,0.0944854766130447,-0.0136215686798095,0.0058286338862615,-0.0124297454318598,0.9489032851992072,-0.3152683007049166
15882.031454375,0.1114654541015625,0.0711669921875,-0.952056884765625,15882.026484375,-2.415279464073213,-0.0050442914736684,-0.0155850088884009,1.218931317329407,-0.0161306653171777,8.525202751159668,0.0773245617747306,0.0872903913259506,-0.0189787745475769,0.0051256466899829,-0.0063882759091567,0.9347418735963304,-0.3552332240139515
15882.041394375,0.078460693359375,0.05828857421875,-0.96466064453125,15882.036424375,-2.330455523483733,-0.0029484952841334,-0.0052710173495949,0.9073381423950196,0.2427957355976105,8.529129028320312,0.1144139245152473,0.0658960118889808,0.0479248762130737,0.002394463513992,-0.0018400569933887,0.9188724651352292,-0.3945429779123926
15882.051333375,0.0958709716796875,0.05029296875,-0.9520263671875,15882.046364375,-2.245760877265425,0.000770281854195,0.0006338670535937,0.2746022641658783,0.4118353426456451,8.518350601196289,0.0776904374361038,0.0589224509894847,0.0353388786315918,-0.0004844074771733,0.0001188686584064,0.9013514886303376,-0.4330879956512001
15882.061273375,0.084320068359375,0.020477294921875,-0.9669036865234376,15882.056303375,-2.161309065957029,0.0043280412405642,-0.0006800534068613,-0.5535564422607422,0.2570521533489227,8.49221420288086,0.0915429666638374,0.0496129244565963,0.0479640364646911,-0.0017491730652842,-0.0013187073269358,0.8822643259789005,-0.4707491614655233
15882.071213375,0.041168212890625,0.02734375,-1.0042724609375,15882.066243375,-2.076988473914723,0.0058873151361984,-0.0090006483607189,-1.154715418815613,-0.0357339307665824,8.477507591247559,0.0784330517053604,0.0114767737686634,0.0330384969711303,-0.0002523675439644,-0.0053715765467987,0.8616352733899474,-0.5074995260825009
15882.081153375,0.0472869873046875,0.061767578125,-1.013778686523438,15882.076183375,-1.992675005602642,0.0049801322551754,-0.0207402820316675,-1.270904660224915,-0.3678756952285767,8.47684383392334,0.0361891984939575,0.0066049583256244,-0.0044999122619628,0.0035445520976152,-0.0100583900105372,0.8394527701170987,-0.543327944620042
15882.091092375,0.0291290283203125,0.088409423828125,-1.052032470703125,15882.086122375,-1.908465995470493,0.0022237427087694,-0.0328207011837914,-1.138123631477356,-0.6930177807807922,8.462298393249512,0.0450644716620445,0.028952769935131,-0.0143197178840637,0.0085815819449549,-0.0140309463044089,0.8157706756983694,-0.5781416566693521
15882.101032375,0.0539093017578125,0.101287841796875,-1.026016235351562,15882.096062375,-1.824388659252214,-0.0023130404399627,-0.041525098095737,-0.6225754022598267,-0.8075823783874512,8.449145317077637,0.0314401015639305,0.046896256506443,-0.0528972148895263,0.0136204395761475,-0.0157111894724349,0.7906629289314072,-0.6118985736848652
15882.110972375,0.0485382080078125,0.1177520751953125,-1.01629638671875,15882.106002375,-1.740367069371375,-0.0062244457579702,-0.0446699560123777,0.0564230605959892,-0.692091166973114,8.446324348449707,0.0601275265216827,0.0566327311098575,-0.0270330905914306,0.0167763195399732,-0.0150665072556539,0.7642080964613541,-0.6445754686311645
15882.120912375,0.0624542236328125,0.11138916015625,-0.995391845703125,15882.115942375,-1.656287663735473,-0.007816364689961,-0.0421634205561537,0.545590877532959,-0.3603471517562866,8.453808784484863,0.0563475713133812,0.0756011307239532,-0.017215609550476,0.0171336446724343,-0.0128868593811064,0.7364523817082332,-0.6761495537908331
15882.130851375,0.0518035888671875,0.0985107421875,-1.002731323242188,15882.125881375,-1.572118683805597,-0.0064746422996226,-0.0357168014366682,0.8662988543510437,-0.0555225163698196,8.461551666259766,0.0689247176051139,0.0756799429655075,0.0039494633674621,0.0149089828588962,-0.0103481557959232,0.707416764619434,-0.7065636337299123
15882.140791375,0.0926361083984375,0.0689697265625,-0.959716796875,15882.135821375,-1.487906894020951,-0.0020665809278561,-0.0267596268540117,0.9261353015899658,0.4736289381980896,8.464065551757812,0.0538694523274898,0.0717542991042137,-0.0030914545059204,0.0105442117223666,-0.0083003386304505,0.6771309804227473,-0.7357401788696146
15882.150731375,0.080108642578125,0.0956268310546875,-0.98126220703125,15882.145761375,-1.403739050130074,0.0060334276497854,-0.0189797820566577,0.5385537147521973,0.7004586458206177,8.462526321411133,0.0866038277745246,0.0499910712242126,0.0400848984718322,0.005299045366199,-0.0084305594426404,0.6456362979538829,-0.7635801941929868
15882.160671375,0.1027069091796875,0.068328857421875,-1.005950927734375,15882.155701375,-1.319777932111627,0.013174978169358,-0.0158122617087509,-0.0638032183051109,0.3872981667518616,8.428925514221191,0.0669357180595397,0.0798152163624763,0.018526017665863,0.0022079523743899,-0.0100508459960499,0.6130378164642464,-0.7899865672715218
15882.170610375,0.098724365234375,0.04583740234375,-1.010848999023438,15882.165640375,-1.236033157883794,0.0159811843823365,-0.017166344154185,-0.4533869326114655,-0.1043496131896973,8.413496971130371,0.0867287814617157,0.0511633418500423,-0.0062259435653686,0.0023655403849215,-0.0114852969749699,0.5794358098752377,-0.8149335298724142
15882.1805505,0.0912017822265625,0.0527496337890625,-1.016708374023438,15882.1755805,-1.152369127206344,0.0140853113864222,-0.0222088674052919,-0.8167619705200195,-0.60645592212677,8.395627975463867,0.0846430137753486,0.0236303433775901,-0.0111947655677795,0.0054744015654868,-0.0119549264989094,0.5448469688326476,-0.8384323578959926
15882.1904905,0.0463104248046875,0.0297088623046875,-1.029312133789062,15882.1855205,-1.068839596067312,0.0078774780590383,-0.0297142655154203,-0.8069359660148621,-1.022555947303772,8.38824462890625,0.0833278819918632,0.0230397209525108,-0.0171808004379272,0.010779010474649,-0.0109561765007576,0.5093320068457202,-0.8604328932998911
15882.2004295,0.0560455322265625,0.0782470703125,-0.984619140625,15882.1954605,-0.9853696494373098,0.0006367449129713,-0.0362527913970528,-0.6222923398017883,-0.9648191332817078,8.3915433883667,0.0456741154193878,-0.0065360106527805,-0.0299693942070007,0.0158191144768001,-0.0088536505111673,0.4729204473106223,-0.8809186594423563
15882.2103695,0.0117645263671875,0.06878662109375,-1.0152587890625,15882.2053995,-0.9019313191211284,-0.0049122812587563,-0.0418471706085044,-0.3577387034893036,-0.8093789219856262,8.383152961730957,0.0609535090625286,0.036412090063095,0.0144933462142944,0.019900590300853,-0.0069084295624102,0.4356918990838159,-0.8998492971966106
15882.2203095,0.0222015380859375,0.1035308837890625,-0.966949462890625,15882.2153395,-0.8185297485460533,-0.0074037762060483,-0.0434833097621592,0.0849769338965416,-0.3549873232841492,8.384746551513672,0.0191612504422664,0.0253169909119606,-0.0162314176559448,0.021417141425426,-0.005255673074138,0.3977644168157529,-0.9172225130104664
15882.2302495,0.0423126220703125,0.099456787109375,-0.9678955078125,15882.2252795,-0.7350175364861429,-0.0043821708856001,-0.0416621009049808,0.3745078146457672,0.2519793212413788,8.395853042602539,0.0265799053013324,0.061880812048912,0.032173216342926,0.0202256780459398,-0.0054395320261513,0.3591702568454389,-0.93303703517454
15882.2401885,0.080596923828125,0.1108245849609375,-0.9666290283203124,15882.2352195,-0.651427794567391,0.0041302816309835,-0.0380690992601371,0.2780707478523254,0.7804371118545532,8.4047212600708,0.038185354322195,0.0613968595862388,0.0313714146614074,0.0173719396922527,-0.0080465995130255,0.3199638276656023,-0.947236279768351
15882.2501285,0.055877685546875,0.1237030029296875,-1.031326293945312,15882.2451585,-0.5678343511681068,0.0150386271718533,-0.0354405139319012,0.107784777879715,0.7047410011291504,8.397929191589355,0.0655683130025863,0.0753914639353752,0.0326300263404846,0.014903519686696,-0.0121804470986392,0.2801941606609893,-0.9597503018871388
15882.2600685,0.123626708984375,0.0993194580078125,-1.019256591796875,15882.2550985,-0.4844174168457787,0.0231349947845475,-0.0334764767208426,-0.0402779206633567,0.3544736802577972,8.375432014465332,0.0327577218413353,0.0902327522635459,-0.0321540236473083,0.0134738294733256,-0.0152421948133624,0.2399857759720211,-0.970563139372189
15882.2700085,0.1152801513671875,0.0735931396484375,-1.024459838867188,15882.2650385,-0.401185375272496,0.0273838870528273,-0.0327102619652882,-0.233192503452301,-0.071745827794075,8.352972030639648,0.0962608903646469,0.0666150003671646,-0.0201662182807922,0.0132972997670951,-0.0166734993543182,0.1994242691092115,-0.9796811672482312
15882.2799475,0.0971221923828125,0.0709075927734375,-1.037673950195312,15882.2749775,-0.3181305155347476,0.0267002098677923,-0.0334369290445936,-0.3550989925861359,-0.6165095567703247,8.333710670471191,0.0885980352759361,0.0401624143123626,-0.0253750085830688,0.0143909306810506,-0.0158271035010922,0.1585794404626993,-0.9871144895396996
15882.2898875,0.083740234375,0.0525054931640625,-1.039596557617188,15882.2849175,-0.2352313322929115,0.020433385565937,-0.0347319840974051,-0.2698876857757568,-1.171778559684753,8.32227897644043,0.0767025500535965,0.0361825637519359,-0.0384856462478637,0.0160455754274967,-0.0121820004709615,0.1174970546146173,-0.9928688249850338
15882.2998275,0.0535736083984375,0.0529327392578125,-1.004562377929688,15882.2948575,-0.1524714210140565,0.0117112636896878,-0.0341569153554067,0.1199445053935051,-1.126577019691467,8.31891918182373,0.0720360651612281,0.0183551907539367,-0.0402483940124511,0.0165818250887528,-0.0071383814656739,0.0762491856568773,-0.9969253153854832
15882.3097675,0.0657196044921875,0.067474365234375,-0.958221435546875,15882.3047975,-0.0697142762560942,0.0049402620730727,-0.0315635119049754,0.2302358746528625,-0.7310510277748108,8.32050895690918,0.0486358217895031,0.0213744416832923,-0.0050726532936096,0.015685393189902,-0.0030182916106756,0.0348845916409224,-0.9992636830969472
15882.3197065,0.0318603515625,0.05108642578125,-0.945648193359375,15882.3147365,0.013031072080077,0.0032565581560379,-0.028949240703196,0.2255969047546387,-0.1029715836048126,8.320683479309082,0.0624644085764884,0.0385291390120983,0.0413542985916137,0.0144843966102317,-0.0015337674215988,-0.0064912314669636,-0.9998728357272768
15882.3296465,0.0416107177734375,0.09442138671875,-0.953216552734375,15882.3246765,0.0958428260281484,0.0071847264996682,-0.0274334052736511,-0.0475118607282638,0.3931713104248047,8.333715438842773,0.0246783811599016,0.0236564371734857,0.0539497137069702,0.0138725053872771,-0.0029308464243696,-0.0478490376567724,-0.9987540089465886
15882.3395865,0.053985595703125,0.082916259765625,-0.9889678955078124,15882.3346165,0.1787497057621663,0.0145628290331507,-0.0283748793408025,-0.3149529099464417,0.6120171546936035,8.333270072937012,0.027054252102971,0.0660502910614013,0.0462749600410461,0.0147798041037265,-0.0059853217653722,-0.0891416829183577,-0.9958912513925848
15882.3495255,0.0695953369140625,0.1060638427734375,-1.014068603515625,15882.3445565,0.2616609205266203,0.0227856515576174,-0.030658602996194,-0.4666641354560852,0.522759735584259,8.330845832824707,0.0312126092612743,0.0522624365985393,0.010302722454071,0.0166827892495081,-0.0092942754809548,-0.1302606277752801,-0.9912957635453992
15882.3594655,0.1046905517578125,0.10107421875,-1.023773193359375,15882.3544955,0.3445056237313648,0.029150199695922,-0.0340473644454921,-0.6512675285339355,0.215730294585228,8.309213638305664,0.0404661409556865,0.0720230340957641,-0.015072762966156,0.0192669152385159,-0.0114393694134362,-0.1711147943150872,-0.9849962218642028
15882.3694055,0.0762176513671875,0.1003265380859375,-1.06793212890625,15882.3644355,0.4271580369228792,0.0310825728205133,-0.0376355297795054,-0.5354985594749451,-0.4704680442810059,8.28441047668457,0.0736349672079086,0.0634475499391555,-0.0249639749526977,0.0216802919611614,-0.0111969892860578,-0.2116100549204802,-0.9770494977291856
15882.3793455,0.1013031005859375,0.0803985595703125,-1.042160034179688,15882.3743755,0.5095733801875927,0.0272141387537748,-0.03849679872876,-0.1225557550787926,-0.8966794013977051,8.28124713897705,0.0490270145237445,0.0618392266333103,-0.0690430402755737,0.0220529009937777,-0.0083143494472276,-0.2517155359135957,-0.9675142641622524
15882.3892845,0.07476806640625,0.065155029296875,-1.007553100585938,15882.3843155,0.591900412624796,0.0216268771332256,-0.0354590672508101,0.3375149071216583,-0.7970638871192932,8.285714149475098,0.0796914845705032,0.0449469052255153,-0.043022334575653,0.0201100410452148,-0.0051712764261934,-0.2914026312668553,-0.9563750772690072
15882.3992245,0.0794830322265625,0.082489013671875,-0.9830474853515624,15882.3942545,0.6742300323635235,0.0174391660338601,-0.0292713529676234,0.5622939467430115,-0.5698316097259521,8.291762351989746,0.0573372319340705,0.0358878374099731,-0.0081334710121154,0.0166946529166082,-0.003387171411823,-0.3305974512679718,-0.9436181083647036
15882.4091645,0.0784912109375,0.0715789794921875,-0.9644622802734376,15882.4041945,0.7565917519022425,0.0162046757309732,-0.0223524229953243,0.5031589865684509,-0.148340567946434,8.295134544372559,0.0632830932736396,0.0601384378969669,0.0165714621543884,0.0133777205863074,-0.0034013415856869,-0.3692180253633074,-0.9292403291943648
15882.4191045,0.086700439453125,0.03839111328125,-0.940582275390625,15882.4141345,0.8389473109023144,0.0184060107783086,-0.0178044694952007,0.0952657908201217,0.2812134623527527,8.279082298278809,0.0600891336798667,0.0537754371762275,0.0352098941802978,0.011877986186749,-0.0047791859374787,-0.407171581929149,-0.9132619746773664
15882.4290435,0.0465850830078125,0.0773162841796875,-0.979095458984375,15882.4240735,0.9212724161948712,0.0234929018549103,-0.0178245819211796,-0.4522452354431152,0.4191896915435791,8.273366928100586,0.0632134079933166,0.0205674655735492,0.0589829683303833,0.0132038891856332,-0.0065601078942711,-0.4443760207491343,-0.8957189441985737
15882.4389835,0.0550994873046875,0.083648681640625,-1.031448364257812,15882.4340135,1.003646134824224,0.0274503458836156,-0.0224842244716733,-0.8341076374053955,0.0211214628070592,8.25729751586914,0.0191450975835323,0.0548339486122131,0.0202751159667968,0.0164564267377193,-0.0066247079723064,-0.480813680531282,-0.8766432402827332
15882.4489235,0.067352294921875,0.0729522705078125,-1.030075073242188,15882.4439535,1.085926839281578,0.0280911327436084,-0.0278840612526141,-0.6633279323577881,-0.2815728783607483,8.248510360717773,0.0270229410380125,0.0557682253420352,-0.0322314500808715,0.0191913987217005,-0.0048214254953089,-0.5164066661739449,-0.856114788595485
15882.4588635,0.083740234375,0.09332275390625,-1.012924194335938,15882.4538935,1.168100097674472,0.0273076301920248,-0.0309970706104026,-0.4229406118392944,-0.3451567590236664,8.251016616821289,0.0400611460208892,0.0419601611793041,-0.0309280753135681,0.0204553901441802,-0.0028439218637483,-0.551113003222437,-0.8341750386477657
15882.4688025,0.0776824951171875,0.095916748046875,-1.017166137695312,15882.4638325,1.250252136649834,0.0262244271568926,-0.0318821378261889,-0.1959023922681808,-0.3878008723258972,8.257182121276855,0.0575321093201637,0.0614460110664367,-0.0137760043144226,0.0205968507730513,-0.0013033899234582,-0.5849053722162887,-0.8108389189076468
15882.4787425,-0.1125335693359375,0.5436859130859375,-1.0084228515625,15882.4737725,1.329204704175204,0.0252241279835017,-0.0300084480594882,0.2562272548675537,-0.2340875267982483,7.171107769012451,0.0524723716080188,0.0659128054976463,-0.0179343223571777,0.0195867352746242,-0.0006736427457867,-0.6164787594200286,-0.7871275359490243
15882.4886825,-0.0692138671875,0.3311004638671875,-1.023361206054688,15882.4837125,1.38834082175842,0.0262943594792856,-0.0221702643505238,0.98627507686615,0.1122730821371078,4.917687892913818,-0.1388184726238251,0.5215174555778503,-0.0090141892433166,0.0169290757450093,-0.0030128755984236,-0.6395414525836798,-0.7685642816565864
15882.4986215,-0.126068115234375,-0.21270751953125,-0.866363525390625,15882.4936525,1.429837069622812,0.029473311037322,-0.0110616974937461,0.641075849533081,0.5162628889083862,3.173919916152954,-0.0986811369657516,0.3200390040874481,-0.0238566398620605,0.0138363315998947,-0.0075023945610462,-0.6554131483683023,-0.7551065047975316
15882.5085615,-0.072998046875,0.0950927734375,-1.022918701171875,15882.5035915,1.446677324651005,0.03647267370229,-0.011712043978828,-0.6635063290596008,0.6172718405723572,0.4258648753166199,-0.1625302284955978,-0.2244192957878113,0.1329029202461243,0.0164585125960901,-0.0097935854469318,-0.6616895709170983,-0.7495331908081174
15882.5185015,0.0847320556640625,0.120391845703125,-1.100173950195312,15882.5135315,1.446324672323917,0.0375834398286536,-0.0164381722347205,-0.1919702291488647,-0.4046600759029388,-0.3651256263256073,-0.1105675846338272,0.0786553472280502,-0.02375990152359,0.0185952652836146,-0.0086491310158934,-0.6615038629086382,-0.7496612356003668
15882.5284415,0.037872314453125,-0.014373779296875,-1.009048461914062,15882.5234715,1.441794338478316,0.031766100476891,-0.0188809535825128,-0.2509587407112122,-0.6975355744361877,-0.5175612568855286,0.0529769323766231,0.1015120148658752,-0.100856602191925,0.0175736576146583,-0.0057001418229898,-0.6598336050240072,-0.7511846032486591
15882.5383805,0.0207672119140625,0.0237579345703125,-1.012237548828125,15882.5334115,1.436543866101304,0.0244075145369854,-0.020548940055054,-0.082853078842163,-0.7537024617195129,-0.5383501648902893,0.0134723484516143,-0.0349212698638439,-0.0095573663711547,0.0157658706639368,-0.0024271855545402,-0.6579063806994038,-0.7529306866817762
15882.5483205,0.00146484375,0.0306396484375,-0.979522705078125,15882.5433505,1.43121530975611,0.0174833685852052,-0.0213108641439487,-0.0564164072275161,-0.5871615409851074,-0.5319580435752869,0.0032886769622564,0.0024486854672431,-0.0126174092292785,0.0137759513134808,0.000393531618058,-0.6559435309115282,-0.7546840724112852
15882.5582605,-0.0135498046875,0.029876708984375,-0.967193603515625,15882.5532905,1.425982888426478,0.0137332754201112,-0.0217538416267745,-0.0060091596096754,-0.13108229637146,-0.5147541165351868,-0.0122647769749164,0.0088875256478786,0.0201464295387268,0.012718203368318,0.0019206451607679,-0.6539888486279011,-0.756394764070419
15882.5682005,-0.011871337890625,0.02777099609375,-0.9705963134765624,15882.5632305,1.42091176631606,0.0148613675800896,-0.0214821655971307,0.0733956471085548,0.3708604574203491,-0.5030743479728699,-0.0284072216600179,0.0083961989730596,0.0324652791023254,0.0129878694645354,0.0013722243120566,-0.6520633075994808,-0.7580519331662445
15882.5781395,0.0111541748046875,0.0251922607421875,-0.9925079345703124,15882.5731695,1.415968095845478,0.020264489757254,-0.0205890514208146,0.1186113283038139,0.692788302898407,-0.4901377558708191,-0.0321301743388176,0.0071834009140729,0.0289864540100097,0.0144085229727315,-0.0010025609538615,-0.6501565604149057,-0.7596628748246951
15882.5880795,0.0333404541015625,0.0253753662109375,-1.015670776367188,15882.5831095,1.411070598720352,0.027435231645836,-0.0192673613886186,0.1777367144823074,0.7238737940788269,-0.4825961887836456,-0.0162725504487752,0.0059260949492454,0.0069302320480346,0.0162273557423075,-0.0041957287506891,-0.6482497383692235,-0.761243231035954
15882.5980195,0.049896240234375,0.01416015625,-1.02618408203125,15882.5930495,1.406208502151624,0.0334944994116437,-0.0177327733622894,0.14014832675457,0.4728569090366364,-0.4825634658336639,-0.0001425445079803,0.007643524557352,-0.0163887739181518,0.0175902394315461,-0.0070423228013527,-0.6463594955793065,-0.762797702661101
15882.6079595,0.0591278076171875,0.0141143798828125,-1.0291748046875,15882.6029895,1.40132962005178,0.0359667302030292,-0.0170623282152684,0.0272864792495966,0.0222516749054193,-0.4922920167446136,0.0139424726366996,-0.002901341766119,-0.0269762873649597,0.0181135028217261,-0.008246182457126,-0.6444810472213757,-0.7643611850817267
15882.6178985,0.05157470703125,0.016326904296875,-1.022247314453125,15882.6129285,1.396389661834554,0.033874063931229,-0.0176129179018446,-0.10659409314394,-0.4126309752464294,-0.5000999569892883,0.025265447795391,-0.0034976247698068,-0.0299034714698791,0.0176315173523112,-0.0073124851800513,-0.6426045974870499,-0.7659601818789403
15882.6278385,0.036163330078125,0.0257568359375,-1.015289306640625,15882.6228685,1.391453893184246,0.0283958241023168,-0.0192175484773671,-0.1611414849758148,-0.635781466960907,-0.501619815826416,0.0231879148632288,-0.002889459952712,-0.0228350162506103,0.0164740585129692,-0.0047393100094282,-0.6407447101361045,-0.7675625660270743
15882.6377785,0.015045166015625,0.0292205810546875,-0.9988250732421876,15882.6328085,1.386513040478034,0.0218284815529963,-0.0206650219592381,-0.1091672405600548,-0.6309584379196167,-0.4987275004386902,0.0143412165343761,0.0050932876765728,-0.0157409906387329,0.0149210182381249,-0.0017918477117107,-0.6388864801175101,-0.769154134454192
15882.6477175,-0.0035858154296875,0.0274505615234375,-0.97283935546875,15882.6427485,1.381629645222894,0.0164969546301011,-0.0218005140078409,-0.102387361228466,-0.379781574010849,-0.4847989082336426,-0.0014471467584371,0.0074217952787876,0.0008012652397155,0.0136559438192469,0.0005880176552325,-0.6370365792083105,-0.7707123721659568
15882.6576575,-0.0125579833984375,0.0273895263671875,-0.9641571044921876,15882.6526875,1.376892971841777,0.0149331755852819,-0.0227148312079601,-0.0591488108038902,0.0954177305102348,-0.4708006680011749,-0.0185146108269691,0.0047376845031976,0.0267912149429321,0.013513607762714,0.0014499172291736,-0.6352141026244424,-0.7722165147934127
15882.6675975,0.002655029296875,0.0265350341796875,-0.9814453125,15882.6626275,1.372266526400024,0.0180289938156549,-0.0231155664007394,-0.0083205169066786,0.523497998714447,-0.4582172334194183,-0.030581209808588,0.0042760204523801,0.0354132652282714,0.0146523905256345,0.0003480057771104,-0.6334015656973571,-0.7736844391838326
15882.6775375,0.0247039794921875,0.0307159423828125,-1.010940551757812,15882.6725675,1.367763176360658,0.0239584386755435,-0.0230179390311,0.0579027086496353,0.6594753861427307,-0.4475902915000916,-0.0212947968393564,0.0035191290080547,0.0180028676986694,0.0164879335848287,-0.0020138089510388,-0.6316124707516505,-0.7751062334739683
15882.6874765,0.0373077392578125,0.0312042236328125,-1.022811889648438,15882.6825075,1.363293073344607,0.0300555105546406,-0.0219535482309193,0.1824068278074265,0.571054995059967,-0.4456318020820618,-0.0053397919982671,0.0087641589343547,-0.0116330385208129,0.0179903785023666,-0.0047532123414116,-0.6298352878942763,-0.7765058013546767
15882.6974165,0.0536956787109375,0.0193939208984375,-1.026397705078125,15882.6924465,1.358837473726785,0.0345348220054115,-0.0200317479840016,0.2014263272285461,0.3107127249240875,-0.4427655935287476,0.0027866810560226,0.0111738145351409,-0.0236086845397949,0.0186391754537406,-0.0071392952286936,-0.62808122313976,-0.7778917835990828
15882.7073565,0.056671142578125,0.017669677734375,-1.023544311523438,15882.7023865,1.354334750491488,0.0354488615868178,-0.0187837446391261,0.0792956128716468,-0.1118350550532341,-0.4535892009735107,0.0182604640722274,0.0006112828850746,-0.0272022485733032,0.0184231482181355,-0.0079283927360279,-0.6263321543825286,-0.7792982597152309
15882.7172965,0.047943115234375,0.01611328125,-1.018051147460938,15882.7123265,1.349814809428149,0.0323744382201816,-0.0188268064273269,-0.0591101944446563,-0.4738792777061462,-0.4563213288784027,0.0243080668151378,-0.0011560171842575,-0.0242454409599304,0.017461874351114,-0.0067564258767283,-0.6245965339503465,-0.7807230220096281
15882.7272355,0.030303955078125,0.0277252197265625,-1.010299682617188,15882.7222655,1.345292441398864,0.026714372678844,-0.0199142482019481,-0.1081163585186005,-0.6279495358467102,-0.455285906791687,0.0212371870875358,-0.0037996526807546,-0.0186061263084411,0.016109037635792,-0.0042436280657282,-0.6228674844875087,-0.7821500085286731
15882.7371755,0.0095977783203125,0.0255126953125,-0.990509033203125,15882.7322055,1.340822066332624,0.0206093189027884,-0.02093000227475,-0.0788857638835907,-0.5571649074554443,-0.4476422369480133,0.0097005795687437,0.006796745583415,-0.0107309818267822,0.0146013427068546,-0.0015722729444005,-0.6211566123350973,-0.783548818842784
15882.7471155,-0.0055694580078125,0.025054931640625,-0.9715423583984376,15882.7421455,1.336426197006723,0.0162688103411911,-0.0218425742556356,-0.0884158834815025,-0.2629750669002533,-0.4370569586753845,-0.0066664610058069,0.0036718565970659,0.0091201663017272,0.0136115871459941,0.0003818130683561,-0.6194572117354744,-0.7849122776362583
15882.7570555,-0.009552001953125,0.0266571044921875,-0.966583251953125,15882.7520855,1.332153407227788,0.0157794323893575,-0.0227012979461798,-0.0681825205683708,0.1899010688066483,-0.4241201281547546,-0.0213441960513591,0.002355583012104,0.0280755162239074,0.0137987393516999,0.0008104253271231,-0.6177766096549973,-0.7862321322690093
15882.7669945,0.00848388671875,0.0268402099609375,-0.990325927734375,15882.7620245,1.328016049556865,0.0194391246867027,-0.0233032961266252,-0.0389599204063415,0.5281087160110474,-0.4105217754840851,-0.0289846509695053,0.0033559184521436,0.0329563617706298,0.0151648173061775,-0.0004736372964914,-0.61611809985685,-0.7875076766917624
15882.7769345,0.028533935546875,0.0330810546875,-1.0172119140625,15882.7719645,1.323962724551454,0.0251129919392113,-0.0234667445268595,0.0399253070354461,0.6063528060913086,-0.4038127362728119,-0.0166195780038833,0.003375619649887,0.0090835094451904,0.0169715633439309,-0.0026917731763641,-0.6144739391694042,-0.7887499568597733
15882.7868745,0.03875732421875,0.03338623046875,-1.021408081054688,15882.7819045,1.31993118767473,0.0305833854656425,-0.0225206879066103,0.1694236546754837,0.5025433301925659,-0.4001753926277161,-0.0020369552075862,0.0105622690171003,-0.0179330110549926,0.0182688133224044,-0.0051767566009426,-0.6128431064134862,-0.7899764193627438
15882.7968135,0.053924560546875,0.021942138671875,-1.026870727539062,15882.7918445,1.31588761571628,0.0343448418442718,-0.0207323886415239,0.1927361637353897,0.2360161691904068,-0.4042726755142212,0.0044265873730182,0.0126553252339363,-0.0222125649452209,0.0187006136713571,-0.0072485124983687,-0.6112273406532349,-0.7912008126888406
15882.8067535,0.0550079345703125,0.0181121826171875,-1.023406982421875,15882.8017835,1.311795050143923,0.0345366243255461,-0.0193812060174237,0.0981137752532959,-0.1823480725288391,-0.4088791310787201,0.0194012559950351,0.0025621447712183,-0.0276547074317932,0.0182089689235704,-0.0077747872021322,-0.6096186204040259,-0.7924474717222011
15882.8166935,0.043121337890625,0.01904296875,-1.01373291015625,15882.8117235,1.307689268669142,0.0309756544676008,-0.0191686223222392,-0.0274111200124025,-0.4981466829776764,-0.4124645292758942,0.0240428932011127,-0.0010552685707807,-0.0240702629089355,0.0170260767859539,-0.006463627461561,-0.6080238801262626,-0.7937098048896175
15882.8266335,0.025543212890625,0.022308349609375,-1.001083374023438,15882.8216635,1.303595367131236,0.0253927333930692,-0.0200005385490622,-0.1059746444225311,-0.5844850540161133,-0.4126959443092346,0.0177363846451044,-0.0009562373161315,-0.0142552256584167,0.0156506215846335,-0.0040270275967229,-0.6064363869211138,-0.7949676992604043
15882.8365725,0.0050201416015625,0.0235748291015625,-0.986572265625,15882.8316035,1.299550086584392,0.0200283014568987,-0.0211949755906315,-0.1128522530198097,-0.4624906778335571,-0.4063332676887512,0.0055207218974828,0.0011149607598781,-0.0015084743499755,0.0144955426119316,-0.0015617693390857,-0.6048585020068212,-0.796199503445923
15882.8465125,-0.00518798828125,0.0246124267578125,-0.970184326171875,15882.8415425,1.295585424463813,0.0167370731322323,-0.022503585043822,-0.1363354623317719,-0.1507809907197952,-0.3923783004283905,-0.0117119401693344,0.0010731425136327,0.0130345225334167,0.0140213033235661,0.0001165440769867,-0.6032933375727054,-0.7973961015044431
15882.8564525,-0.0034027099609375,0.0253753662109375,-0.975982666015625,15882.8514825,1.291765382348512,0.0171570731792194,-0.0239291324102993,-0.1341111958026886,0.2527408003807068,-0.3787443935871124,-0.0223393365740776,0.0006855763494968,0.0293822884559631,0.0147169687592041,0.0003511014070371,-0.6017563790156023,-0.7985439864410456
15882.8663925,0.01580810546875,0.0293426513671875,-1.000350952148438,15882.8614225,1.28809640191434,0.0207970842705332,-0.0252150854023585,-0.103077121078968,0.4633046984672546,-0.3686257302761078,-0.0241917110979557,0.0001629516482353,0.0234832763671875,0.0163241480214193,-0.0007451763975863,-0.6002525649478386,-0.7996436193863794
15882.8763315,0.0274505615234375,0.035858154296875,-1.01806640625,15882.8713615,1.284469681666203,0.0254424809933706,-0.0257809486773571,0.0208104699850082,0.469342976808548,-0.3620596826076508,-0.0096232034265995,0.0035645589232444,-0.0010067820549011,0.0179400576182332,-0.0024651459857383,-0.5987569826428364,-0.8007259567392925
15882.8862715,0.0337371826171875,0.0361328125,-1.020401000976562,15882.8813015,1.280851842451718,0.0295890965996363,-0.0248997943064812,0.1754807382822037,0.3793262541294098,-0.3590558767318726,-0.0021250732243061,0.0109609309583902,-0.0188139677047729,0.0188207746164794,-0.0044232599094357,-0.5972776398303336,-0.8018014800572865
15882.8962115,0.0456390380859375,0.0276641845703125,-1.026153564453125,15882.8912415,1.277219779892822,0.0325830810284153,-0.0226462198344427,0.2892962396144867,0.2237977385520935,-0.3585279285907745,0.0011681877076625,0.0134885255247354,-0.0211880207061767,0.0188002169062953,-0.0063310321794658,-0.5958144525777714,-0.802877043616619
15882.9061515,0.0530853271484375,0.0161895751953125,-1.023727416992188,15882.9011815,1.273577972081448,0.0330851421006766,-0.0200567080582063,0.2394219040870667,-0.1210102438926697,-0.3600912094116211,0.0125665590167045,0.0076088197529315,-0.0269018411636352,0.0178972003067444,-0.0073369914504896,-0.59437221128701,-0.8039573383027347
15882.9160905,0.038177490234375,0.0133514404296875,-1.005416870117188,15882.9111205,1.269945305241141,0.0303141565527913,-0.0184707160263846,0.0887567624449729,-0.3948855400085449,-0.3641019463539124,0.022780954837799,-0.0022800918668508,-0.0243573784828186,0.0164240933550946,-0.0067244962101507,-0.5929493899662968,-0.8050440610724826
15882.9260305,0.0277099609375,0.01348876953125,-0.99566650390625,15882.9210605,1.266306684561622,0.0258057935078611,-0.018561293253263,-0.0908252522349357,-0.4820052683353424,-0.3653887808322906,0.0123789776116609,-0.0052087884396314,-0.0059220194816589,0.0151149820584972,-0.0049104077914747,-0.5915185580856215,-0.8061346700819565
15882.9359705,0.012969970703125,0.0212860107421875,-0.9887542724609376,15882.9310005,1.262728163280152,0.0212594226250985,-0.0201117359994855,-0.1812528818845749,-0.3932112753391266,-0.3596573770046234,0.0064564105123281,-0.0066216122359037,0.0039053559303283,0.0143904483400076,-0.0026449478955823,-0.5900969657076907,-0.8071997177453452
15882.9459095,0.0039215087890625,0.02447509765625,-0.98052978515625,15882.9409405,1.259217182432229,0.0183385546205372,-0.0221449724564202,-0.2133748531341553,-0.1610078513622284,-0.3506622910499573,-0.0053630862385034,-0.0008571539074182,0.0108324289321899,0.0143475926079762,-0.0008911956468117,-0.5886855519590755,-0.8082342158469452
15882.9558495,0.00482177734375,0.0245361328125,-0.9822540283203124,15882.9508795,1.255830002570417,0.0180710589600295,-0.0244373061741078,-0.2311930060386658,0.1204191222786903,-0.3378797769546509,-0.0141431968659162,4.022195935249329e-05,0.0190083980560302,0.0151948780286361,-0.0001339111272301,-0.5873015725106269,-0.809225529110097
