acc_t,acc_x,acc_y,acc_z,gyr_t,yaw,roll,pitch,gyr_x,gyr_y,gyr_z,acc_x_2,acc_y_2,acc_z_2,quat_x,quat_y,quat_z,quat_w
15723.05153825,0.0249786376953125,-0.0255126953125,-1.023223876953125,15723.04159725,0.0192197751156641,0.0284650068050178,0.0330670772106656,0.0860323682427406,0.038961187005043,0.0279086120426654,-0.0201143138110637,-0.010228157043457,0.0173590183258056,0.0163935995578622,0.0143882797094258,0.0098427367566205,0.9997136756778188
15723.06147825,0.03375244140625,-0.037841796875,-1.024490356445312,15723.05153825,0.0193628666821614,0.0287281081047545,0.0338834288259978,0.0549831055104732,0.0436576753854751,0.0013654204085469,-0.0126554332673549,0.0071893036365509,-0.0295050144195556,0.0167993238717224,0.0145248177300962,0.0099222138991716,0.999704191628354
15723.07141825,0.035400390625,-0.042999267578125,-1.009353637695312,15723.06147825,0.0191933897864937,0.028977633151628,0.0341882256960141,0.0183459986001253,-0.0031963186338543,-0.0291277728974819,-0.0039780177175998,0.0086688473820686,-0.0242277979850769,0.0169516807761376,0.0146495442197072,0.0098417791374835,0.9997005993372414
15723.08135825,0.0364532470703125,-0.049530029296875,-0.99932861328125,15723.07141825,0.0188172104003075,0.0288034691152997,0.0341969055101923,-0.0169653873890638,-0.0387870706617832,-0.0411205179989337,0.004969784989953,-0.0036515779793262,-0.0254895687103271,0.0169596155251182,0.0145593394633574,0.0096523311641166,0.9997036070532852
15723.09129925,0.0351409912109375,-0.052734375,-1.0009765625,15723.08135825,0.0184225342946568,0.0283725315211647,0.0338684966772448,-0.0273610353469848,-0.0592305250465869,-0.0322129130363464,0.0070479270070791,-0.0091372691094875,-0.0103293657302856,0.0168003681110458,0.014339114634753,0.0094490933918658,0.9997113934807466
15723.10123925,0.1159820556640625,-0.0727386474609375,-1.004638671875,15723.09129925,0.0182549894082671,0.0278905282792854,0.0335928159436619,0.0084840469062328,-0.0430307835340499,-0.0011284966021776,0.0085820574313402,-0.0159435532987117,-0.0002814531326293,0.0166660234263562,0.0140955486624082,0.0093593947246043,0.9997179806628024
15723.11117925,0.030242919921875,-0.0252685546875,-0.970703125,15723.10123925,0.0170217363142025,0.0274761127006874,0.0337265428321437,0.036426730453968,-0.1773322373628616,-0.15362948179245,0.0076839495450258,-0.0190142504870891,-0.0019224882125854,0.016743368226439,0.013878671652435,0.0087403936849865,0.9997253467353804
15723.12111925,0.0110015869140625,-0.036834716796875,-0.9889678955078124,15723.11117925,0.016798385472757,0.0272030236991753,0.0341380687891526,0.0040948907844722,-0.0278918780386447,0.0496586486697197,0.0887982249259948,-0.0386072285473346,-0.0055910348892211,0.0169518055399769,0.0137419765102623,0.0086292322560764,0.9997245687700772
15723.13105925,0.0242919921875,-0.0292816162109375,-0.9850616455078124,15723.12111925,0.0170302642327027,0.0267922679669705,0.0344457183500652,0.0407948493957519,0.0184903349727392,-0.0116534428671002,0.0034697391092777,0.0091703310608863,0.0283450484275817,0.0171057913600549,0.0135398948800091,0.0087436962376314,0.9997236869804664
15723.14100025,0.0151824951171875,-0.0311279296875,-0.9977569580078124,15723.13105925,0.0170572394693337,0.0266051833427515,0.0344388731487556,-0.0030999053269624,-0.0179683398455381,0.0129277994856238,-0.0155846923589706,-0.0024026744067668,0.0100854635238647,0.0171030061851253,0.0134465806911868,0.0087555349920989,0.9997248887993452
15723.15094025,0.020782470703125,-0.031890869140625,-0.9906768798828124,15723.14100025,0.0169926866091834,0.0263995514868606,0.0344294864670702,0.0238350387662649,-0.01725441403687,-0.018422931432724,-0.0020888578146696,0.005141045898199,0.0139974951744079,0.0170996450788053,0.0133432022393853,0.0087214477208172,0.999726619245094
15723.16088025,0.019378662109375,-0.034515380859375,-0.994842529296875,15723.15094025,0.0168958672291846,0.0263677231932941,0.034638403621096,0.008954893797636,-0.0128506114706397,-0.0075399237684905,-0.0111663658171892,0.0035035237669944,0.0012958049774169,0.0172048582156272,0.0133273221145024,0.0086741400916824,0.9997255092578152
15723.17082025,0.022064208984375,-0.03448486328125,-1.002761840820312,15723.16088025,0.0167875799436812,0.026310204791018,0.0347673814407101,-0.0149986427277326,-0.0321784690022468,-0.0135087333619594,-0.0055088084191083,0.0028694868087768,0.0083729028701782,0.0172702984262283,0.0132981651069357,0.0086203548711682,0.9997252771137348
15723.18076125,0.023529052734375,-0.032379150390625,-1.009796142578125,15723.17082025,0.0166265949068692,0.0260935408583875,0.0348331165455961,-0.0281045921146869,-0.0500322990119457,-0.0179865732789039,-0.0066960994154214,0.0003106668591499,0.0042106509208679,0.0173051522890928,0.0131887381084473,0.0085384371985513,0.9997268405082234
15723.19070125,0.0228729248046875,-0.034454345703125,-1.012313842773438,15723.18076125,0.0164085128362452,0.0258186768263317,0.034788864526449,-0.040080826729536,-0.0415074527263641,-0.0326933488249778,-0.0037359874695539,0.0002969652414321,-0.0036999583244323,0.0172856300081842,0.0130492810088472,0.0084267657194798,0.9997298673976046
15723.20064125,0.02728271484375,-0.04644775390625,-0.995758056640625,15723.19070125,0.0159636785263621,0.0271794912588976,0.0352464550017677,-0.0106329228729009,-0.0373899415135383,-0.043583545833826,-0.0036302246153354,0.0028599873185157,-0.0107862949371337,0.0175116763416522,0.0137274278397727,0.0082192456401137,0.9997186653247984
15723.21058125,0.0228271484375,-0.0469512939453125,-0.9871826171875,15723.20064125,0.0155780959471479,0.0269141101856299,0.035027795935009,0.003737760707736,-0.0366678610444068,-0.0287003368139267,-0.0040214378386735,0.000566266477108,-0.0132891535758972,0.0174060889166701,0.0135905733610308,0.0080227289749587,0.9997239097130182
15723.22052225,0.02520751953125,-0.04168701171875,-1.001388549804688,15723.21058125,0.0154786172560395,0.026373606463775,0.0352188930234807,0.0267037972807884,0.0012329164892435,0.0042493576183915,0.0009285099804401,-0.0112361647188663,0.0032742619514465,0.0175044418252078,0.0133202469143636,0.0079695455944771,0.9997262537335871
15723.23046225,0.0294647216796875,-0.0416717529296875,-1.006423950195312,15723.22052225,0.0156286334167742,0.0265893359348204,0.0355094582255931,0.0552145354449749,0.047105137258768,0.0235942937433719,-0.0037423036992549,-0.0114493146538734,0.0118337869644165,0.0176478174197353,0.0134304955375022,0.0080483319321498,0.9997216438725104
15723.24040225,0.0300140380859375,-0.0477447509765625,-1.018692016601562,15723.23046225,0.0158738002865499,0.0267737015321895,0.0359731041196873,0.0510437563061714,0.0365401096642017,0.0228291675448417,-0.0015456732362508,-0.0057216919958591,-0.0023936629295349,0.0178771747832055,0.0135265988750182,0.0081755770744791,0.9997153064547086
15723.25034225,0.0233917236328125,-0.0409393310546875,-1.019546508789062,15723.24040225,0.0160217899230452,0.0267737414326576,0.0363188482308822,0.0343944728374481,-0.0107258735224604,0.0105338841676712,0.0027118232101202,-0.005360908806324,-0.0074415206909179,0.0180489971128417,0.0135292845265842,0.0082518399822981,0.9997115380111388
15723.26028225,0.0183258056640625,-0.035491943359375,-1.004074096679688,15723.25034225,0.0161736947674164,0.0263167551277965,0.0366778122350031,0.0433235205709934,-0.0410363748669624,0.0189164504408836,0.0037180092185735,-0.0110751874744892,-0.0197106003761291,0.0182293024349908,0.0133036355312932,0.0083259808529338,0.999710706011162
15723.27022325,0.0175628662109375,-0.0294647216796875,-0.9981842041015624,15723.26028225,0.0163387425975157,0.0258851928157372,0.0370670417962463,0.0392797775566577,-0.0257968679070472,0.015811339020729,-0.0024728067219257,-0.0038807988166809,-0.0205681920051574,0.0184245790529581,0.0130909649517976,0.0084070369209443,0.9997091841860988
15723.28016325,0.022247314453125,-0.0367279052734375,-1.0048828125,15723.27022325,0.0163743890002334,0.0256847900606822,0.0371961825014982,0.0168732702732086,-0.0014893980696797,-0.0096194529905915,-0.0073384046554565,0.0016956403851509,-0.0050954222679138,0.0184897419923496,0.0129916343859889,0.0084238281338409,0.9997091185146474
15723.29010325,0.032501220703125,-0.04296875,-1.008102416992188,15723.28016325,0.0162344198722617,0.0256680929127058,0.0372821245650155,0.0152814984321594,0.0117194801568985,-0.0144967660307884,-0.0080845803022384,0.0078087411820888,0.0007917284965515,0.0185336791950026,0.0129823323443646,0.008354254197206,0.9997090326539336
15723.30004325,0.0298919677734375,-0.041656494140625,-1.013717651367188,15723.29010325,0.0161858257372376,0.0258552634850407,0.0377361363764089,0.0289062298834323,0.0126079097390174,0.0066247642971575,-0.0035866741091012,0.0009992532432079,-0.0059286952018737,0.0187601550738167,0.0130772217012223,0.0083345982037843,0.9997037323489004
15723.30998425,0.02215576171875,-0.038665771484375,-1.000656127929688,15723.30004325,0.0161735981419251,0.0256122076025618,0.0382465081848876,0.0202078148722648,-0.0443450883030891,-0.0113397222012281,0.0069105327129364,-0.0047315880656242,-0.0091614723205566,0.0190163575374497,0.0129576155439569,0.008329433938835,0.999700524070426
15723.31992425,0.020599365234375,-0.039520263671875,-0.997528076171875,15723.30998425,0.0159712855836541,0.025075669154917,0.0383362119064857,-0.0116345379501581,-0.0550225004553794,-0.0272169560194015,0.0048373416066169,-0.0033296942710876,-0.0147665143013,0.0190647141075292,0.0126878499003364,0.0082237613177086,0.9997039150617908
15723.32986425,0.0185394287109375,-0.0389251708984375,-0.9880523681640624,15723.31992425,0.0157465195727942,0.0247331504820717,0.0384050626066962,0.016613345593214,-0.0394965037703514,-0.0132735762745142,-0.0025566406548023,-0.0002701692283153,-0.0016990900039672,0.0191019440575223,0.012514761040127,0.0081085665451027,0.9997063316035736
15723.33980425,0.0199737548828125,-0.040496826171875,-0.9923858642578124,15723.32986425,0.015626939879636,0.0245956791306112,0.03887516934145,0.0277632027864456,-0.0044074906036257,-0.0083928015083074,-0.003975261002779,-0.0006549060344696,0.0014141798019409,0.0193382309289739,0.0124466839128319,0.0080503358641845,0.999703085089218
15723.34974525,0.022857666015625,-0.045318603515625,-1.004959106445312,15723.33980425,0.0155388705167686,0.0245826053030263,0.0391154000782269,0.0216488502919673,-5.941465497016907e-05,-0.0080756191164255,-0.0060219075530767,0.0001802332699298,0.0108808279037475,0.0194589123437257,0.0124402021850146,0.0080076460659812,0.9997011179283036
15723.35968525,0.0219268798828125,-0.0455780029296875,-0.99853515625,15723.34974525,0.0154832391209008,0.0242488417190719,0.0393107639247065,0.0323792584240436,-0.0323758088052272,-0.0045693009160459,-0.0042539872229099,-0.0011962093412876,0.0065478086471557,0.0195582424908756,0.0122735612163512,0.0079777601568888,0.999701505535386
15723.36962525,0.0220184326171875,-0.0448150634765625,-1.00372314453125,15723.35968525,0.0154160889407074,0.0236963929985485,0.039212477234215,-0.0051665185019373,-0.0445208884775638,-0.0114197507500648,-0.0008183028548955,-0.0061161965131759,-0.0060083270072937,0.0195117189714912,0.0119963946923019,0.0079382174450903,0.9997061026150184
15723.37956525,0.023040771484375,-0.05029296875,-0.993621826171875,15723.36962525,0.0152180574571449,0.0231682017224047,0.0390942056528681,-0.0001874724403023,-0.0556667521595954,-0.0235256813466548,-0.0012215562164783,-0.0064937770366668,0.0004326105117797,0.0194558562699636,0.0117300068326462,0.0078334006427705,0.9997112404445714
15723.38950625,0.0240020751953125,-0.053070068359375,-0.997100830078125,15723.37956525,0.015019396891727,0.0228740153301125,0.0391986391604147,-0.0002074460498988,-0.0403589680790901,-0.0095169208943843,-0.0008360259234905,-0.0056264847517013,-0.0047526955604553,0.0195103609112537,0.011581403738423,0.007731826407211,0.9997126902653394
15723.39944625,0.0233612060546875,-0.04925537109375,-1.010986328125,15723.38950625,0.0150383066998824,0.0228284965365862,0.039245606422044,0.0079623330384492,-0.0045517003163695,0.0172425210475921,0.0002318266779184,-0.0110574625432491,0.0053477883338928,0.0195339047544513,0.0115590067455824,0.0077410991568233,0.9997124075198698
15723.40938625,0.0184478759765625,-0.041351318359375,-1.006088256835938,15723.39944625,0.0152393624034731,0.0226939136522971,0.0394681193426752,0.0335768833756446,-0.0184029676020145,0.0209833309054374,0.0013277735561132,-0.0136122182011604,0.0018631219863891,0.0196444958301472,0.0114945215008531,0.0078415294409224,0.9997101587085988
15723.41932625,0.0197296142578125,-0.0399017333984375,-1.022308349609375,15723.40938625,0.0154224871217373,0.0223838998683673,0.0397201954836583,0.0155808376148343,-0.0316063873469829,0.0156365018337965,0.000996820628643,-0.0095456428825855,-0.0120253562927246,0.0197706746486461,0.0113423018546336,0.0079314112833135,0.999708702484904
15723.42926725,0.01177978515625,-0.0327911376953125,-1.01715087890625,15723.41932625,0.015505881318225,0.0218816373538894,0.0398419346772965,0.0187081880867481,-0.0547739900648593,0.0020055114291608,-0.0034146588295698,-0.0015199445188045,-0.0071210265159606,0.0198330557492018,0.0110925264929194,0.0079687875618809,0.9997099621859864
15723.43920725,0.004608154296875,-0.0341949462890625,-0.999664306640625,15723.42926725,0.0154298157228589,0.0211839843896523,0.0401408499569789,0.0332913920283317,-0.0704027563333511,-0.0172336976975202,-0.0014357306063175,0.0002283155918121,-0.0233380794525146,0.0199856567122261,0.0107441664089926,0.0079254059034495,0.9997111402729364
15723.44914725,0.00738525390625,-0.04083251953125,-0.9958648681640624,15723.43920725,0.0152392109757539,0.0206716034465277,0.0406787004833343,0.0572965927422046,-0.044763870537281,-0.0172085296362638,-0.0088732559233903,0.0078763253986835,-0.0181915760040283,0.0202575357743612,0.0104881377434928,0.0078277483423758,0.9997090950536294
15723.45908725,0.0131378173828125,-0.044647216796875,-0.9907379150390624,15723.44914725,0.0151132091090237,0.0203681285543101,0.0415820213326618,0.0950317233800888,-0.0219187401235103,-0.0088507318869233,-0.0157409682869911,0.007375068962574,-0.0007359385490417,0.0207109037968356,0.0103384854657249,0.0077662200701012,0.9997018447066488
15723.46902725,0.0224609375,-0.0493316650390625,-0.9901275634765624,15723.45908725,0.015012808850781,0.0202955004180644,0.0425712632777213,0.0835977047681808,-0.0002040918916463,-0.0075629604980349,-0.0128904767334461,0.0017258673906326,0.0030233860015869,0.0212061756444377,0.0103047485716374,0.0077202225332533,0.9996921772005553
15723.47896825,0.0303192138671875,-0.0575103759765625,-1.005355834960938,15723.46902725,0.014903491505589,0.0204202272915087,0.0433881869335552,0.0396140031516552,0.0042668227106332,-0.0147052919492125,-0.0072617828845977,-0.0012726671993732,0.0081126689910888,0.0216145960747581,0.0103688868290394,0.0076710069739454,0.9996831577142892
15723.48890825,0.0227508544921875,-0.04840087890625,-1.013137817382812,15723.47896825,0.0148065098697609,0.0203457658589775,0.0438657509131156,0.0184240285307169,-0.0373523905873298,-0.0045573166571557,0.0021361373364925,-0.0054800026118755,0.0087037086486816,0.0218540899520052,0.0103323343372232,0.0076241168576249,0.9996786582594368
15723.49884825,0.008575439453125,-0.027618408203125,-0.991973876953125,15723.48890825,0.0147605447701732,0.0198878518086727,0.0442070270544381,0.0264736991375684,-0.0644828081130981,-0.0124924713745713,0.0104520935565233,-0.01331777125597,-0.0065303444862365,0.0220266500359124,0.0101041694100801,0.007597806004411,0.9996774514408158
15723.50878825,0.0043487548828125,-0.027984619140625,-0.9919586181640624,15723.49884825,0.0145115280477241,0.0193109663927796,0.0442656430386305,-0.004054382443428,-0.0401944182813167,-0.0277858059853315,0.003459995612502,-0.0041497126221656,-0.0143036246299743,0.0220593598812233,0.0098132821162445,0.0074672613094561,0.9996806792496864
15723.51872925,0.0069732666015625,-0.0322418212890625,-1.003997802734375,15723.50878825,0.0141914955071711,0.0191584857295129,0.043985346916844,-0.0174322389066219,-0.0043163113296031,-0.041262999176979,-0.0105633549392223,0.0163527391850948,0.0068756341934204,0.0219213834959275,0.0097325718488012,0.0073042941862194,0.9996856723737756
15723.52866925,0.0126953125,-0.04022216796875,-0.99481201171875,15723.51872925,0.0137212704237246,0.0189891901252982,0.0437097018865409,0.0192517396062612,0.0051590837538242,-0.0502250678837299,-0.0146211665123701,0.0157111436128616,0.0069061517715454,0.0217864900846647,0.0096418799823896,0.0070661123327733,0.9996911769166584
15723.53860925,0.017486572265625,-0.0519866943359375,-0.994293212890625,15723.52866925,0.0132328670930117,0.0189105535428951,0.0437750011153977,0.0360229983925819,0.0387071892619133,-0.0495116077363491,-0.0119180530309677,0.0115191750228405,-0.0051344037055969,0.0218217515350262,0.0095974622242629,0.0068214329523896,0.9996925509948522
15723.54854925,0.024688720703125,-0.06402587890625,-0.9876251220703124,15723.53860925,0.0127483434697994,0.0191215165118174,0.0441809783824899,0.0690115690231323,0.0487965419888496,-0.0450141951441764,-0.0064063873142004,0.0039444155991077,0.0040295124053955,0.0220263092211533,0.0096988757812824,0.006583459461505,0.9996886402990344
15723.55849025,0.0274200439453125,-0.069549560546875,-0.9687652587890624,15723.54854925,0.0123837176449774,0.019350010935577,0.0451295984666617,0.1129891499876976,0.0219979509711265,-0.0198654327541589,-0.0018425397574901,-0.0068724304437637,0.0045016407966613,0.0225015063097234,0.0098119049598183,0.0064082417351078,0.9996781147204165
15723.56843025,0.0335540771484375,-0.0723724365234375,-0.9812774658203124,15723.55849025,0.0122849749305892,0.0197087266410091,0.046293225935867,0.0943664610385894,0.0383435674011707,0.0042702630162239,0.0050023756921291,-0.0177492089569568,0.0111095309257507,0.0230824729601325,0.0099935355627252,0.0063685720347095,0.9996633333772694
15723.57837025,0.03680419921875,-0.070465087890625,-1.004425048828125,15723.56843025,0.0124756352508319,0.0203680252339012,0.0473473095323021,0.072013221681118,0.0471919178962707,0.0382197089493274,0.0070762429386377,-0.0222199633717536,0.0299068689346313,0.0236062473923604,0.010328433807403,0.0064767669210553,0.9996470581581828
15723.58831025,0.028564453125,-0.0643768310546875,-0.9998016357421876,15723.57837025,0.0128508955745872,0.0207190310234663,0.0481817031786084,0.0990317910909652,0.0121248457580804,0.0418278910219669,0.0128605645149946,-0.0242093950510025,0.0173476338386535,0.0240201897710612,0.0105108814160128,0.0066727307497727,0.9996338730324345
15723.59825025,0.02093505859375,-0.0470428466796875,-0.999176025390625,15723.58831025,0.0134133802035296,0.0204263554917295,0.048762354292897,0.0988890454173088,0.0006719231605529,0.0672080814838409,0.0164035353809595,-0.0217220820486545,-0.0058220624923706,0.0243084686424453,0.010373226787457,0.0069532719657682,0.9996264535746512
15723.60819125,0.02020263671875,-0.0426788330078125,-1.019577026367188,15723.59825025,0.0139808246161627,0.0200858287742373,0.0490613995798779,0.0556510239839553,0.0054851863533258,0.0393823124468326,0.0085041318088769,-0.0153351314365863,-0.0012063384056091,0.0244562211192993,0.0102109307931003,0.007234224344172,0.9996226197922268
15723.61813125,0.0172119140625,-0.0552978515625,-1.028457641601562,15723.60819125,0.0141871273807992,0.0196272358693021,0.0491428812727721,0.0456854775547981,-0.0451937019824981,0.0024708984419703,0.0013327691704034,0.0020802319049835,-0.0005756616592407,0.0244975751848476,0.0099845225309409,0.0073321216710965,0.9996231795845318
15723.62807125,0.007293701171875,-0.04541015625,-1.002716064453125,15723.61813125,0.0141652619456829,0.0186697745170721,0.0495815073630252,0.0798327922821044,-0.105634942650795,-0.0012210416607558,0.0015568807721138,0.0068823359906673,-0.0209800004959106,0.0247204177096847,0.0095072054374668,0.0073114725898701,0.99962250866137
15723.63801125,0.001190185546875,-0.0375823974609375,-0.9871978759765624,15723.62807125,0.0141130206289794,0.0177669421053605,0.0503909999019215,0.0640213415026664,-0.0682204589247703,-0.0104409046471118,-0.0005315523594617,-0.0049281939864158,-0.0298845767974853,0.0251285500348897,0.0090580794069132,0.0072777256979468,0.9996166151619512
15723.64795225,0.008209228515625,-0.053955078125,-0.996246337890625,15723.63801125,0.0138568749495717,0.0174607522845957,0.0512688811420379,0.0542171783745288,-0.0372369773685932,-0.0384104885160923,-0.0101432334631681,0.0058362483978271,-0.00418221950531,0.0255695750534959,0.0089047666929306,0.0071496075824546,0.999607791389464
15723.65789225,0.01605224609375,-0.061126708984375,-0.9976348876953124,15723.64795225,0.0134295203755502,0.0174256924795085,0.0523239044962417,0.0587408244609832,-0.0207458846271038,-0.0348074994981288,-0.0162107851356267,0.0147176124155521,0.0112819075584411,0.0260989022249911,0.0088852014560931,0.0069400682947839,0.9995957719925734
15723.66783225,0.0182952880859375,-0.060211181640625,-1.001632690429688,15723.65789225,0.0131608380054981,0.0176951312658745,0.0532070553284615,0.0222065150737762,-0.0037322808057069,-0.0174793731421232,-0.0094599463045597,-0.0007731467485427,0.0021821856498718,0.0265405742022365,0.0090191617765253,0.0068131262205158,0.9995838131117016
15723.67777225,0.0252685546875,-0.0631256103515625,-1.00604248046875,15723.66783225,0.0129583043695323,0.0180475122962977,0.0536744333796674,-0.0023805852979421,-0.0180539600551128,-0.0164924059063196,-0.0019683055579662,-0.0074780620634555,0.000762403011322,0.026773897287717,0.0091940488466898,0.0067186455935148,0.9995765880691372
15723.68771325,0.0215606689453125,-0.0574188232421875,-1.00738525390625,15723.67777225,0.0127919872539031,0.0181096426018633,0.0537275474203381,-0.0340008288621902,-0.0191388987004756,-0.0100194606930017,0.0002127569168806,-0.0065095014870166,-0.0032393932342529,0.0268009988580562,0.0092230367486092,0.0066365890841796,0.9995762407897224
15723.69765325,0.01043701171875,-0.056182861328125,-1.01556396484375,15723.68771325,0.0126871481669954,0.0179706791731411,0.0531940044504727,-0.0305214077234268,-0.0326094329357147,-0.011250639334321,0.0073242522776126,-0.0099567137658596,-0.0076181888580322,0.0265352812211739,0.0091505526972659,0.006579979177652,0.9995842959729492
15723.70759325,0.0025177001953125,-0.047210693359375,-1.006988525390625,15723.69765325,0.0126315190149674,0.0174838872131511,0.0528135083760774,0.0053122215904295,-0.0581805408000946,0.0047106170095503,0.0041020419448614,-0.0046298876404762,-0.0089321732521057,0.026346959670702,0.0089053626220106,0.0065440867707254,0.999591711916608
15723.71753325,0.0018157958984375,-0.037750244140625,-1.022232055664062,15723.70759325,0.0127995823565002,0.0169888063466112,0.0529000680832217,0.0127618815749883,-0.0471798218786716,0.0275618713349103,-0.0065272208303213,-0.0033074840903282,-0.0171069502830505,0.0263911129259165,0.008660403999446,0.0066219221815146,0.9995922092639862
15723.72747425,0.0040283203125,-0.0450439453125,-1.019927978515625,15723.71753325,0.0130196189111383,0.0160368440394912,0.0531298693762155,0.0633781850337982,-0.0973439589142799,0.0105153759941458,-0.0134958364069461,0.005894161760807,-0.0085279941558837,0.0265082159115585,0.0081882431397,0.0067202348235533,0.9995924200460824
15723.73741425,-0.0088958740234375,-0.0231170654296875,-1.030471801757812,15723.72747425,0.0129936644902843,0.0146413541578077,0.0534804592740144,0.0731932669878006,-0.1145975142717361,-0.0126474676653742,-0.0128041096031665,0.0157047025859355,-0.0237688422203064,0.0266882191412887,0.0074915404236464,0.0066900173713183,0.9995933372664234
15723.74735425,-0.0052337646484375,-0.03143310546875,-1.00909423828125,15723.73741425,0.0124149184762401,0.0132320857834368,0.0549083061061702,0.208101823925972,-0.1462187170982361,-0.1054518446326256,-0.0091834459453821,0.0098367519676685,-0.0215224623680114,0.0274085201285542,0.0067837678631736,0.0063865541256318,0.9995809605199004
15723.75729425,0.0024261474609375,-0.063812255859375,-0.9966888427734376,15723.74735425,0.01114779917394,0.0120108922983169,0.0570266965268217,0.1735512912273407,-0.1230958253145218,-0.1343665719032288,-0.0208869613707065,0.033878706395626,-0.0321693420410156,0.0284750664887404,0.0061617806891678,0.0057427127463134,0.9995590706164782
15723.76723425,0.0042266845703125,-0.0670318603515625,-1.002655029296875,15723.75729425,0.009949264692937,0.0112512015912805,0.0584371092215315,0.1047796905040741,-0.0699837654829025,-0.0956091955304145,-0.0164655316621065,0.0269707292318344,-0.0108643770217895,0.0291856002700869,0.0057684283096354,0.0051367554149088,0.9995441743555334
15723.77717525,0.0070648193359375,-0.064666748046875,-0.9907379150390624,15723.76723425,0.0091192617090394,0.0110067013347038,0.0594534743603419,0.0793779268860817,-0.0526191629469394,-0.0739853978157043,-0.008560893125832,-0.0043938234448432,0.0014838576316833,0.0296965172757493,0.0056363545756825,0.0047211014472347,0.9995319519785044
15723.78711525,0.0043487548828125,-0.070159912109375,-0.98388671875,15723.77717525,0.0084483298686606,0.0108940767180215,0.0598893943350979,0.0244622137397527,-0.0251972246915102,-0.0560986697673797,-0.0066476548090577,-0.0071782805025577,-0.0045070648193359,0.0299165108153457,0.0055709908115121,0.004385279062432,0.9995273036495592
15723.79705525,0.00433349609375,-0.0656280517578125,-0.9978790283203124,15723.78711525,0.0080305893474942,0.0107232214130905,0.0600525027811025,0.0386989414691925,-0.0140252634882926,-0.0299951657652854,-0.003638875670731,-0.0046503506600856,0.0074021220207214,0.0299995479454844,0.0054796691895858,0.0041743791465396,0.9995261658043664
15723.80699525,0.0056304931640625,-0.0619049072265625,-0.9918975830078124,15723.79705525,0.0077836173105817,0.0103816204134324,0.0603820331060192,0.088072083890438,-0.0225551035255193,-0.027794063091278,-0.006013766862452,-0.0098145864903926,0.0142370462417602,0.0301656004066223,0.005305859601222,0.0040466626862907,0.999522716041241
15723.81693625,0.0174560546875,-0.075103759765625,-0.9727020263671876,15723.80699525,0.007328153383026,0.0099786138423731,0.0608239879171563,0.1008475348353386,-0.0220491029322147,-0.0613038204610347,-0.0056265071034431,-0.0048415809869766,0.0002220869064331,0.0303884504264209,0.0050983586180507,0.0038140382672021,0.999517903867169
15723.82687625,0.01666259765625,-0.0743865966796875,-0.9944610595703124,15723.81693625,0.0068984834424012,0.0098106961011839,0.0610401101251435,0.0104934014379978,0.0113738346844911,-0.0223857164382934,-0.0041617825627326,-0.0009027160704135,0.0061920285224914,0.0304978550456559,0.0050082677314803,0.0035972736318024,0.999515868168188
15723.83681625,0.011932373046875,-0.0586395263671875,-0.9850311279296876,15723.82687625,0.0067610308282625,0.0094789753714029,0.0600945614135826,-0.0217534843832254,0.0047963596880435,-0.0181060153990984,0.0079943239688873,-0.0150453820824623,0.0254480242729187,0.0300262355215378,0.0048388621538706,0.0035213310024546,0.9995312091589152
15723.84675625,0.0109100341796875,-0.05718994140625,-0.9995574951171876,15723.83681625,0.0064964807994554,0.0091943373499181,0.0591034431671714,-0.0352229550480842,0.0048378724604845,-0.0415395721793174,0.0074844360351562,-0.0153175778687,0.0037506818771362,0.0295320250929186,0.0046910967749638,0.0033826152666662,0.9995471432771766
15723.85669725,0.0179443359375,-0.0666961669921875,-1.006515502929688,15723.84675625,0.0059633613479987,0.0091125276670635,0.0591977159168543,0.0308841597288847,0.0001232773065567,-0.0603113919496536,0.0028359247371554,0.0005236007273197,0.0131757855415344,0.0295805192846524,0.0046424727075812,0.003115178875521,0.999546729171764
15723.86663725,0.008697509765625,-0.06396484375,-1.005447387695312,15723.85669725,0.0053819196234147,0.0089071408974408,0.0598616807865238,0.0698544606566429,-0.0293769892305135,-0.0619981065392494,0.0020189573988318,0.002635970711708,-0.0013882517814636,0.0299139872532497,0.0045320746081999,0.0028230028761403,0.9995382254982323
15723.87657725,0.0033111572265625,-0.059051513671875,-1.015670776367188,15723.86663725,0.0047309682926447,0.0084899738314202,0.060733658733499,0.0812187045812606,-0.0549462661147117,-0.0703202113509178,0.0094701088964939,-0.0059998594224452,-0.0083951950073242,0.0303517692403121,0.0043148260072468,0.0024932564834815,0.9995267887590876
15723.88651725,0.0019683837890625,-0.0633544921875,-1.011886596679688,15723.87657725,0.0039673423034106,0.0076839311374277,0.0618260722865608,0.0890377461910247,-0.0956722944974899,-0.0813184082508087,0.0010283277370035,-0.0021781735122203,-0.0073874592781066,0.0309002073432817,0.0039014241494849,0.0021014549290812,0.9995126215888456
15723.89645825,0.004425048828125,-0.067657470703125,-1.003158569335938,15723.88651725,0.0031581705689068,0.0067301520003222,0.062782732806905,0.085320770740509,-0.0871690809726715,-0.0770299136638641,-0.0034056911244988,0.0036899596452713,-0.0176635384559631,0.0313806855775089,0.0034129690714436,0.0016839145305527,0.999500180850896
15723.90639825,0.0073394775390625,-0.0721282958984375,-0.9948883056640624,15723.89645825,0.0024166477431308,0.0060235643581369,0.0636053384012704,0.0780961439013481,-0.0596606917679309,-0.0648126676678657,-0.0040429714135825,0.0002079457044601,-0.0139268040657043,0.0317935064478717,0.0030486740134897,0.0013034735753008,0.9994888747837736
15723.91633825,0.00726318359375,-0.0750274658203125,-0.9997406005859376,15723.90639825,0.0018972253257438,0.0059690039489563,0.0643472949798958,0.006968175061047,-0.0141669772565364,-0.0411291755735874,-0.0015315734781324,-0.0033545941114425,-0.0052459239959716,0.032165111542898,0.0030134667480533,0.0010441230015553,0.9994774218832114
15723.92627825,0.009490966796875,-0.0736083984375,-1.012985229492188,15723.91633825,0.0015123099932779,0.0062516229146946,0.0642942879873573,-0.0543431192636489,0.0148841496556997,-0.0347917862236499,0.0011008041910827,-0.0078783109784126,0.0030260682106018,0.0321390806939252,0.0031484945646597,0.0008562290243586,0.99947801781907
15723.93621825,0.0051727294921875,-0.063262939453125,-1.00439453125,15723.92627825,0.0012297712019144,0.0065955083179168,0.0635412176746647,-0.0797584652900695,0.0251945760101079,-0.0195185560733079,0.0006810254417359,-0.0115290135145187,-0.0017803311347961,0.0317630580161131,0.003315615170956,0.0007193257186398,0.9994896974187174
15723.94615925,0.0005950927734375,-0.0677947998046875,-1.0035400390625,15723.93621825,0.0009463939301533,0.0070246792326999,0.0624200790629947,-0.11031823605299,0.0338750481605529,-0.0395398028194904,0.0024800184182822,-0.0112288631498813,-0.014957308769226,0.0312031173997608,0.0035253877054194,0.0005825658521448,0.9995066263836172
15723.95609925,0.00408935546875,-0.072479248046875,-1.001693725585938,15723.94615925,0.0004483409375527,0.0075972074216706,0.0614461315687706,-0.0967033579945564,0.0308638140559196,-0.0544135570526123,-0.002410075161606,-0.0018554851412773,-0.0063105225563049,0.0307171611133241,0.0038036881700177,0.0003407492056503,0.9995207589958433
15723.96603925,-0.0035858154296875,-0.0638427734375,-0.9958953857421876,15723.95609925,1.500337820558974e-05,0.007849831326831,0.0607966351812933,-0.035741738975048,0.0031784903258085,-0.032757930457592,-0.0072401631623506,-0.007035631686449,-0.0054183006286621,0.0303933732024957,0.003923320380993,0.0001267903248182,0.9995302882818456
15723.97597925,-0.00347900390625,-0.0512542724609375,-1.00103759765625,15723.96603925,-0.0002046664439215,0.0078515126186621,0.0606079357573871,0.0013899179175496,0.0259759463369846,-0.017534501850605,-0.0037476690486073,-0.0119084306061267,-0.0035605430603027,0.0302994998150724,0.0039208434295761,1.666204681039299e-05,0.9995331090205836
15723.98592025,-0.0001983642578125,-0.0561065673828125,-0.9970550537109376,15723.97597925,-0.000468850305497,0.008067270961301,0.0608063769385084,0.026142667979002,0.0325600132346153,-0.0365340262651443,-0.0116380974650383,-0.0030738823115825,0.0022240281105041,0.0303992043371259,0.0040246345435013,-0.000111698744134,0.9995296457651618
15723.99586025,0.0050048828125,-0.0653076171875,-1.000259399414062,15723.98592025,-0.0008926655755585,0.008339202593022,0.0611294055492931,0.0038317702710628,0.0304854121059179,-0.046065479516983,-0.0118025410920381,0.0098370462656021,-0.0029401183128356,0.0305615363391533,0.0041540016574111,-0.0003186980300597,0.9995241778986954
15724.00580025,0.007537841796875,-0.06243896484375,-1.003158569335938,15723.99586025,-0.0013730763142037,0.0085993965182735,0.0612313706847674,-0.0292819738388061,0.0120076015591621,-0.0503185465931892,-0.0087815476581454,0.0050865299999713,0.0010340213775634,0.0306135634912142,0.0042766537582128,-0.0005545928267499,0.9995219800343548
15724.01574025,0.001190185546875,-0.0675811767578125,-0.991485595703125,15724.00580025,-0.0019161968177278,0.0086269449645539,0.0610633033163438,-0.0588811486959457,-0.0108873285353183,-0.0569817759096622,-0.0036058835685253,-0.0042822770774364,-0.0021603107452392,0.0305307402104743,0.0042821991825092,-0.0008259662991227,0.9995243451278268
15724.025682625,0.000946044921875,-0.0650177001953125,-1.000228881835938,15724.01574025,-0.0023471259526775,0.0085657056972338,0.0606980749787112,-0.0600795671343803,-0.0101463701575994,-0.029540829360485,-0.001011992804706,-0.0017781741917133,-0.00503671169281,0.0303491012307899,0.0042452535609228,-0.0010430514467286,0.999529874169902
15724.035622625,0.0093841552734375,-0.0745391845703125,-0.9984893798828124,15724.025682625,-0.0025638746078296,0.0084411240594198,0.0602797196172493,-0.0410275794565677,-0.0034905979409813,-0.0153038371354341,-0.0072355140000581,-0.0073379799723625,0.0066625475883483,0.0301404121410349,0.0041799980424159,-0.0011541559291122,0.9995362515283154
15724.045562625,0.0102386474609375,-0.078094482421875,-0.9876861572265624,15724.035622625,-0.0024799104117835,0.0082973719062427,0.060109164345094,-0.0284156464040279,0.0140790082514286,0.0244912467896938,-0.0073362533003091,-0.0049447491765022,-0.0020692348480224,0.0300549183683951,0.0041095369686597,-0.0011147164664826,0.9995391641187962
15724.055502625,0.0077362060546875,-0.0755615234375,-0.99053955078125,15724.045562625,-0.0020707978920916,0.0084473958879998,0.0601306608914887,-0.0119389370083808,0.046739749610424,0.0712089464068412,0.0009521190077066,-0.014444775879383,-0.0003322958946228,0.0300648871805392,0.0041906495479381,-0.0009079542840619,0.9995387844822642
15724.065442625,0.006103515625,-0.062225341796875,-1.008193969726562,15724.055502625,-0.0012015068246819,0.0086219173933993,0.060018767968893,-0.024874709546566,0.0453835688531398,0.0905609428882598,0.0016323532909154,-0.018111765384674,0.0104761719703674,0.0300071861836898,0.0042909784621049,-0.0004711279470302,0.9995403017480826
15724.075383625,0.0041046142578125,-0.0627288818359375,-1.003646850585938,15724.065442625,-0.0001965228498251,0.0086929412152344,0.0598100985139177,0.0096952524036169,0.0344616770744323,0.1112805977463722,-0.0009410893544554,-0.0157871022820472,0.0076346397399902,0.0299007364529035,0.00434157546753,3.174507342472085e-05,0.9995434406824688
15724.085323625,0.0092315673828125,-0.0617523193359375,-1.002655029296875,15724.075383625,0.0008631284819034,0.0086733271621065,0.0597672358341715,-0.0061694644391536,0.0123867355287075,0.0988838523626327,-0.0025542238727211,-0.0024937056005001,-0.0100170373916626,0.0298770175719323,0.004347608262416,0.000560943024704,0.9995439115748184
15724.095263625,0.0146636962890625,-0.0596160888671875,-1.011154174804688,15724.085323625,0.0018082781422177,0.008468191314984,0.0597484736318578,-0.0234653651714325,-0.0235227942466735,0.0878692865371704,-0.0043483730405569,-0.0030159763991832,-0.0054670572280883,0.0298656868067793,0.0042591982053324,0.0010301985463426,0.9995443194633948
15724.105203625,0.0149688720703125,-0.05999755859375,-1.006988525390625,15724.095263625,0.0025678513028376,0.0080414984870611,0.0594154959788215,-0.0509177595376968,-0.0514929816126823,0.0577441379427909,0.0012043379247188,-0.0023717954754829,-0.0044518709182739,0.0296979526860088,0.0040570974333209,0.0014027777575036,0.9995497375787676
15724.115144625,0.014862060546875,-0.064453125,-0.9837646484375,15724.105203625,0.0030379733757747,0.0073400510986024,0.0592159159583211,-0.0282950066030025,-0.0479688197374343,0.0422693118453025,0.0073365685530006,-0.0004347972571849,-0.0129337906837463,0.0295978250196458,0.0037133715817727,0.0016269557565758,0.9995537170636266
15724.125084625,0.01336669921875,-0.06195068359375,-1.001083374023438,15724.115144625,0.0035252701318231,0.0069476791776458,0.0589244195370678,-0.0588981881737709,0.004512533545494,0.0485236123204231,0.0080332998186349,-0.0011072531342506,-0.008748173713684,0.0294516051105269,0.0035242430803941,0.0018641904941313,0.999558208464056
15724.135024625,0.009246826171875,-0.068267822265625,-1.006210327148438,15724.125084625,0.0039396570420747,0.0071389994923328,0.0586300192105022,-0.0680975466966629,0.0255086291581392,0.0359284579753875,0.0077353809028863,-0.0058567151427268,0.0144916772842407,0.0293035395913914,0.0036256885145844,0.0020735928977706,0.999561818892088
15724.144964625,0.00274658203125,-0.057159423828125,-1.009796142578125,15724.135024625,0.0043124178123638,0.0075168530278304,0.0584436267717411,-0.0567426234483718,0.0365919061005115,0.0416688993573188,0.005862743128091,-0.0035403445363044,-0.0028189420700073,0.0292092784998221,0.0038198030346209,0.0022650832374241,0.999563504131836
15724.154905625,0.0027618408203125,-0.0469512939453125,-1.007949829101562,15724.144964625,0.0047384332516001,0.0078391775679265,0.0583097727332419,-0.0609424337744712,0.0341226235032081,0.0427496097981929,0.0014210436493158,-0.0099911093711853,-0.0079405307769775,0.0291411672894738,0.0039869657782334,0.002482447651064,0.999564300419554
15724.164845625,0.00469970703125,-0.04534912109375,-1.0096435546875,15724.154905625,0.0051551257213774,0.0081366768105817,0.0577856196330197,-0.05259795114398,0.034914880990982,0.0421721041202545,-0.0053764311596751,0.0005940198898315,-0.0114983320236206,0.0288779706938006,0.0041410773083831,0.0026939913143553,0.9995708173432596
15724.174785625,0.008026123046875,-0.0484161376953125,-1.0018310546875,15724.164845625,0.0055518672769905,0.0084208733624444,0.0574145388724854,-0.0447626635432243,0.0488075278699398,0.036194372922182,-0.0056450646370649,0.0104316845536232,-0.0096330046653747,0.0286912787807809,0.0042883509762021,0.002895614462961,0.9995749206480082
15724.184725625,0.01055908203125,-0.0569000244140625,-0.9994964599609376,15724.174785625,0.0058791114224245,0.0089052480505947,0.0571154412895488,-0.0358312204480171,0.046456255018711,0.031774990260601,-0.0041909096762537,0.0117352493107318,-0.011313796043396,0.0285403497036227,0.0045347092608527,0.0030654623450208,0.999577643079527
15724.194665625,0.0036163330078125,-0.058837890625,-1.015274047851562,15724.184725625,0.0061661396220425,0.0093617813717198,0.0565979495725994,-0.0686751902103424,0.0193540640175342,0.0197976902127265,-0.0013205390423536,0.0081515796482563,-0.0034760236740112,0.0282803276805778,0.0047662121562286,0.0032142423507325,0.9995835013565256
15724.204606625,0.00421142578125,-0.0523529052734375,-1.015106201171875,15724.194665625,0.0062701708078487,0.0093652164913279,0.0560449005660812,-0.0536877140402793,-0.0395400747656822,0.0033518718555569,0.0012086974456906,-0.0008844807744026,-0.0011103153228759,0.0280036633026031,0.0047685698581746,0.0032650148977278,0.9995911226237882
15724.214546625,0.0037994384765625,-0.0562896728515625,-1.01580810546875,15724.204606625,0.0062795965633022,0.0089270409381616,0.055809873937511,-0.0337904393672943,-0.0726993605494499,-0.0023387703113257,-0.0052966978400945,-0.0030570067465305,-0.0168707966804504,0.0278868903210311,0.0045493492907984,0.0032630764509832,0.9995954341212792
15724.224486625,0.002349853515625,-0.0659332275390625,-1.0,15724.214546625,0.0061895950903394,0.0081818983679247,0.055755880880744,-0.0018218541517853,-0.0984299927949905,-0.0141193969175219,-0.0039576757699251,0.0033740736544132,-0.0166935324668884,0.0278613060837026,0.0041755929792329,0.0032075956632607,0.9995979684999609
15724.234426625,0.00579833984375,-0.0599365234375,-0.9951019287109376,15724.224486625,0.006065563209181,0.0072096145086526,0.0561030126357191,0.017522282898426,-0.0960840135812759,-0.0072740074247121,-0.0033987779170274,-0.000216107815504,-0.0174074172973632,0.0280365891157583,0.0036884270769221,0.0031326705601925,0.9995951473886496
15724.244367625,0.012969970703125,-0.0562591552734375,-1.011032104492188,15724.234426625,0.0059733163113242,0.0062391451253718,0.0562728615465464,0.0172381233423948,-0.0834252759814262,-0.0157694909721612,-0.0038793827407062,-0.0096900798380374,-0.001602292060852,0.0281231426198116,0.0032023411215393,0.0030732185670936,0.9995946177120298
15724.254307625,0.01605224609375,-0.0605316162109375,-1.005584716796875,15724.244367625,0.0058130543924575,0.0052759871468238,0.056441776799396,0.06340242177248,-0.0959826111793518,-0.014278121292591,0.0005307709798216,-0.0035247318446636,0.0032917857170104,0.0282092605564126,0.0027189424280292,0.0029797918675938,0.999593913072049
15724.264247625,0.0103302001953125,-0.0510406494140625,-0.98175048828125,15724.254307625,0.0057314213784048,0.0043472467869005,0.056985378452778,0.0904918313026428,-0.0850204452872276,-0.002301086904481,0.0086297867819666,0.0006953626871109,-0.0126647353172302,0.0284824228049395,0.0022543709078117,0.0029264604645961,0.999587490185895
15724.274187625,0.0155181884765625,-0.0473480224609375,-0.9997406005859376,15724.264247625,0.0056403707750004,0.0037199638588432,0.0573382664478465,0.0177822075784206,-0.054932851344347,-0.0150320623070001,0.0123383970931172,-0.0032247863709926,-0.0072349905967712,0.0286597979774512,0.0019400499978579,0.0028723342675886,0.9995832565116892
15724.284128625,0.0055084228515625,-0.0565338134765625,-1.016098022460938,15724.274187625,0.0054542568400377,0.0033162029547999,0.0571243664566252,-0.055328756570816,-0.0670032277703285,-0.0252663232386112,0.0070194052532315,0.0060526318848133,0.0166128873825073,0.0285536344659739,0.0017353002123504,0.0027733613408692,0.9995869070504648
15724.294068625,0.0047607421875,-0.056640625,-1.01898193359375,15724.284128625,0.0051658383719203,0.0027868755698336,0.0565615370097715,-0.0438864827156066,-0.0260635167360305,-0.0245153121650219,0.012735765427351,0.0091833397746086,-0.0013436079025268,0.028273278056003,0.0014659124647682,0.0026212829363237,0.9995957648956502
15724.304008625,-0.013275146484375,-0.037322998046875,-1.0220947265625,15724.294068625,0.0050227901450519,0.0031924911793708,0.056021235485903,-0.0659313350915908,0.1410024613142014,-0.0091471411287784,0.0023209382779896,-0.0005418993532657,-0.0176718831062316,0.0280028234857873,0.0016659500614481,0.0025551098722129,0.999603202477292
15724.313948625,-0.0069122314453125,-0.0671539306640625,-1.007598876953125,15724.304008625,0.0047195718909675,0.0044300258973388,0.0550728697780168,-0.1104210317134857,0.085449993610382,-0.0540067590773105,0.0003374391235411,-0.0015956126153469,-0.0205078125,0.0275275843788263,0.0022791367801694,0.0024198688567015,0.9996155726873752
15724.323889625,-0.009307861328125,-0.0623779296875,-1.014938354492188,15724.313948625,0.0042727761513635,0.0051025408846433,0.0542699173740082,-0.0931190103292465,0.0724487379193306,-0.033670462667942,-0.0183701589703559,0.0169202610850334,-0.0235799551010131,0.0271260311192712,0.0026082862066356,0.0022048130034125,0.9996261521202964
15724.333829625,-0.003204345703125,-0.055938720703125,-1.019546508789062,15724.323889625,0.0039232593779077,0.0057803763016519,0.0535896437885209,-0.0710837468504905,0.0486547276377677,-0.0448922216892242,-0.0126842856407165,-0.0135899521410465,-0.0090510845184326,0.0267857870298057,0.0029416963319001,0.0020383488270722,0.999634708691002
15724.343769625,0.0073699951171875,-0.0546417236328125,-0.9995574951171876,15724.333829625,0.0034669587575461,0.0064083348951279,0.0530145379002386,-0.0488141290843486,0.052876740694046,-0.0390065051615238,-0.0157071575522422,-0.0093882456421852,-0.0163637995719909,0.0264984373844971,0.0032489757991515,0.0018177842153033,0.9996418937797784
15724.353709625,0.0120697021484375,-0.0514373779296875,-1.001907348632812,15724.343769625,0.0032786140555759,0.0074476749135087,0.0528073988141399,-0.0231657586991787,0.1135539337992668,0.0006152079440653,-0.0106415776535868,-0.0031558834016323,-0.0209681987762451,0.0263943107760901,0.0037658043113456,0.0017370348453632,0.9996430047037904
15724.363649625,0.0067291259765625,-0.057098388671875,-0.9968719482421876,15724.353709625,0.003356600608181,0.0086578578896821,0.0526748753183949,-0.0089287655428051,0.1064401268959045,0.0113590657711029,-0.0012757536023855,-0.0019912272691726,-0.0009819269180297,0.0263268474595237,0.0043716047890247,0.001791701028396,0.9996421821806922
15724.373590625,0.0075836181640625,-0.054412841796875,-0.9934844970703124,15724.363649625,0.0033956963788073,0.0095546236850157,0.0523903828868674,-0.0181358456611633,0.0486210361123085,-0.0032688793726265,0.0025283256545662,0.000929020345211,-0.0033249855041503,0.0261837514722002,0.0048201177952198,0.0018223732038846,0.9996438380439022
15724.383530625,0.010833740234375,-0.052215576171875,-0.99713134765625,15724.373590625,0.0032792881592675,0.0098382783006945,0.0524237907340523,0.0150974746793508,0.0296498108655214,-0.0183844491839408,-0.0030954862013459,-0.0046986266970634,0.0017059445381164,0.0262004777273128,0.0049603954421876,0.0017679846988196,0.9996428778540049
15724.393470625,0.0126800537109375,-0.0485687255859375,-0.985107421875,15724.383530625,0.003096441326239,0.0099784001084146,0.0527429202229235,0.0302537903189659,0.0244510564953088,-0.014234178699553,-0.0023807482793927,-0.0016943961381912,0.0050752162933349,0.0263603219368646,0.005028262161047,0.0016792189815567,0.9996384552948844
15724.403410625,0.0100250244140625,-0.045745849609375,-0.9952392578125,15724.393470625,0.0030132255459503,0.0097429408461178,0.0527506547229461,0.0430348329246044,0.0306618120521307,-0.0095323678106069,0.0011044982820749,0.0005105957388877,0.0014302730560302,0.0263645879528996,0.004909483267122,0.0016345412673358,0.9996390696820908
15724.413351625,0.0085906982421875,-0.04925537109375,-1.001358032226562,15724.403410625,0.0028819767676918,0.0098164168005647,0.0534674044503508,0.0441008955240249,0.0523926764726638,-0.0227791983634233,0.002877814695239,0.0048731863498687,0.0134154558181762,0.0267230965673687,0.0049449473837048,0.001571653818413,0.9996294657812196
15724.423291625,0.0026092529296875,-0.049346923828125,-1.000442504882812,15724.413351625,0.0026503862882478,0.0098736318998481,0.0541149351225587,0.0548765771090984,0.0381450951099395,-0.0269984435290098,0.0001659989356994,0.0083426535129547,0.0032482147216796,0.0270472735080795,0.0049708361971944,0.0014582523673238,0.9996207117469282
15724.433231625,0.00689697265625,-0.0561676025390625,-0.9875335693359376,15724.423291625,0.0024241558871294,0.0096852282985541,0.0546641886451358,0.0512152649462223,-0.0113678611814975,-0.0195136293768882,-0.0010799197480082,0.0053815729916095,-0.0028985738754272,0.0273224845515448,0.0048739072654317,0.001343952487062,0.999613846664133
15724.443171625,0.0037994384765625,-0.063751220703125,-0.9867706298828124,15724.433231625,0.00225166416541,0.0095472474752576,0.0552765289720857,0.0701524689793586,-0.0065076928585767,-0.0106193367391824,-0.0069232750684022,0.0059014372527599,-0.0020153522491455,0.0276290420108789,0.0048028913265211,0.0012573063851525,0.9996058914304132
15724.453112625,0.0070648193359375,-0.052978515625,-0.99700927734375,15724.443171625,0.0021938493597881,0.0096085181147993,0.0557500522217748,0.041061695665121,0.0063756145536899,-0.0005880082026124,-0.0026964778080582,-0.0004464499652385,0.0108667016029357,0.0278658097014317,0.0048329437352658,0.0012303865564071,0.99959924664629
15724.463052625,0.0013580322265625,-0.0529632568359375,-1.003814697265625,15724.453112625,0.0021659483136173,0.0096440813697341,0.0561882731597273,0.0429240465164184,0.0071127098053693,-0.0066317860037088,-0.005829282104969,-0.0075925253331661,0.0116048455238342,0.0280848764178643,0.0048505369321181,0.0012179865680407,0.9995930848004552
15724.472992625,-0.0019378662109375,-0.05645751953125,-1.004745483398438,15724.463052625,0.0020469841027568,0.0097343374176467,0.0564951352155853,0.0224057212471962,0.014447322115302,-0.017897754907608,-0.0026538418605923,0.0034865476191043,0.0013480186462402,0.0282384811417256,0.004894112019171,0.0011605381645601,0.9995886026985354
15724.482932625,0.0015106201171875,-0.0676422119140625,-1.005035400390625,15724.472992625,0.0018340676809431,0.009782468345547,0.0566741661414337,0.041367694735527,-0.0110559724271297,-0.0184178724884986,-0.0084085818380117,0.0036805532872676,-0.0054680109024047,0.0283284543294076,0.0049152308593131,0.0010552386399059,0.9995860993503402
15724.492872625,0.00775146484375,-0.0672454833984375,-1.001495361328125,15724.482932625,0.0016155654006533,0.0096925632232173,0.0570204655795752,0.064962238073349,-0.0243675168603658,-0.0200461279600858,-0.0116145340725779,0.0005320310592651,-0.0064175724983215,0.0285021121756077,0.004867318059505,0.0009455941171709,0.9995814780025234
15724.502813625,0.0042724609375,-0.056060791015625,-0.9976959228515624,15724.492872625,0.001431718132372,0.0094159921337811,0.0575316277573187,0.0744697228074073,-0.0357547253370285,-0.0188341233879327,-0.007889661937952,-0.0101423412561416,-0.0067341327667236,0.0287581523550741,0.0047266190151742,0.0008509650629299,0.999574846027306
15724.512753625,0.0144805908203125,-0.0529632568359375,-0.9968414306640624,15724.502813625,0.001190384694741,0.0090008080021286,0.0579273462553622,0.0453933291137218,-0.0475469380617141,-0.0265559591352939,-0.0012341318652033,-0.009350549429655,-0.0032131075859069,0.028956646656217,0.0045157366525785,0.0007252661558802,0.999570246162434
15724.522693625,0.017608642578125,-0.058135986328125,-0.9939422607421876,15724.512753625,0.0009806034898504,0.0083351525644282,0.0581179710277941,0.0377372726798057,-0.0635227411985397,-0.0134243108332157,-0.0040485300123691,0.0020244419574737,0.0005810260772705,0.0290525967422955,0.0041800496497196,0.0006111785749965,0.9995689895923116
15724.532633625,0.0078277587890625,-0.059051513671875,-0.9930572509765624,15724.522693625,0.0010590006421935,0.0075564474817259,0.0585296540528155,0.0463110543787479,-0.0850972756743431,0.0272224508225917,0.0069371471181511,0.0055329613387584,0.0014176964759826,0.0292584379211896,0.0037920899385042,0.0006398228160993,0.999564462353438
15724.542574625,0.000732421875,-0.0554656982421875,-1.008651733398438,15724.532633625,0.0014652712886679,0.0065761730961828,0.0590989054537054,0.0422377474606037,-0.094838723540306,0.0492593087255954,0.0110439900308847,0.0009284988045692,0.0042903423309326,0.0295425788725873,0.0033082902356341,0.0008294586656947,0.9995576430328178
15724.552514625,0.001373291015625,-0.0581207275390625,-1.022186279296875,15724.542574625,0.0019308675002135,0.0053969083298027,0.05949948224457,0.0691641718149185,-0.1398733109235764,0.0433873049914836,0.0024404190480709,0.0004128441214561,0.0051586627960205,0.029742628209422,0.0027259727823298,0.0010452692845653,0.999553279650656
15724.562454625,-0.004425048828125,-0.061981201171875,-1.01971435546875,15724.552514625,0.0022725701499478,0.0036552197040357,0.0602234034178386,0.0986277908086776,-0.1870857924222946,0.0286974422633647,-0.0029161705169826,0.0047212839126586,-0.0104712843894958,0.0301050082588106,0.0018609895451375,0.0011907919875626,0.9995442248887844
15724.572394625,-0.0087738037109375,-0.0595245361328125,-1.0234375,15724.562454625,0.0024874434685981,0.0014724541437005,0.0610920515975314,0.1008395403623581,-0.2257325202226639,0.0106329536065459,-9.642296936362982e-05,0.0029333084821701,-0.0240528583526611,0.0305403285781931,0.0007738678167101,0.0012656261791053,0.9995324377435104
15724.582335625,-0.01666259765625,-0.063812255859375,-1.042221069335938,15724.572394625,0.002557972972104,-0.0011998204614154,0.0621682984853471,0.0726715549826622,-0.3238882124423981,0.0041552148759365,-0.0032275535631924,0.0001470372080802,-0.0216469168663024,0.0310798807244525,-0.0005598701331439,0.0012597234249056,0.9995159192413974
15724.592275625,-0.0053253173828125,-0.0570220947265625,-1.002548217773438,15724.582335625,0.0028447428786228,-0.005363752892452,0.0618748859811493,-0.0911629199981689,-0.5103790163993835,0.0527632310986518,-0.0034203478135168,0.0023108534514904,-0.0253654718399047,0.0309361786379976,-0.0026365898608275,0.0013387282382023,0.999516977635028
15724.602215625,-4.57763671875e-05,-0.0722198486328125,-0.9942169189453124,15724.592275625,0.0030353251333258,-0.0098478978419375,0.0619992136526895,0.1308898627758026,-0.4407146573066711,0.0008234670385718,-0.00683378521353,-0.00185277312994,-0.044190764427185,0.0310016990238875,-0.0048745186987439,0.0013642991623719,0.9995065434923068
15724.612155625,-0.0106353759765625,-0.042144775390625,-1.00927734375,15724.602215625,0.0031891317547014,-0.0137549595242032,0.0632392719606702,0.140479102730751,-0.4430776834487915,0.0305643193423748,0.0084017068147659,0.006175011396408,-0.0046415328979492,0.0316245412632701,-0.0068235692450342,0.001376305292767,0.999475555237222
15724.622096625,-0.017425537109375,-0.06292724609375,-1.009933471679688,15724.612155625,0.0033028026392632,-0.0172863129106917,0.0642657068584002,0.09055707603693,-0.4205293357372284,0.0017067044973373,0.0172039847820997,-0.0079983919858932,0.0035696625709533,0.0321403458174994,-0.0085855222314325,0.0013728087812837,0.9994455539062884
15724.632036625,-0.0298004150390625,-0.072998046875,-1.007247924804688,15724.622096625,0.003292239054339,-0.0210289694399453,0.0649511924109055,0.0779826939105987,-0.4367461502552032,0.0021940628066658,0.0103476997464895,0.022760733962059,-0.0116065740585327,0.0324853494996733,-0.0104552868934017,0.0013037625075182,0.9994166241130196
15724.641976625,-0.0288238525390625,-0.0745849609375,-1.003799438476562,15724.632036625,0.00327605562385,-0.0249673573841532,0.0656645989046151,0.1107214689254761,-0.4595655798912048,-0.0015904221218079,0.0074854176491498,0.0026901513338088,-0.0123996138572692,0.0328442379692515,-0.0124228443164932,0.0012272336985442,0.9993824701089536
15724.651916625,-0.0386505126953125,-0.0579986572265625,-1.00616455078125,15724.641976625,0.0033172542915126,-0.0294553149212683,0.0664676149069616,0.0775699093937873,-0.5331023931503296,0.0094571691006422,-0.0004143975675106,-0.0065793842077255,-0.0098888874053955,0.0332484544641415,-0.0146638663953848,0.0011681830540398,0.999338845221002
15724.661857625,-0.0451812744140625,-0.075775146484375,-0.9937744140625,15724.651916625,0.0031352488426103,-0.0349562165535448,0.0671102837510164,0.0549708530306816,-0.5862253904342651,-0.0530992895364761,0.0060465708374977,-0.0075250566005706,-0.006659984588623,0.0335710623774322,-0.0174147748031796,0.0009801622517536,0.9992841132487555
15724.671797625,-0.0528106689453125,-0.0680389404296875,-0.9910125732421876,15724.661857625,0.0026346458593084,-0.0410279158445249,0.0675915353777269,0.0312154572457075,-0.6581001281738281,-0.0423393175005912,0.0022722296416759,0.0095413997769355,-0.0092875957489013,0.0338092018890835,-0.0204562859988072,0.0006231895481391,0.9992187484561664
15724.681737625,-0.0596160888671875,-0.056610107421875,-1.0086669921875,15724.671797625,0.0022234063830531,-0.04802594573937,0.0676970700458516,0.0005816486664116,-0.7722914814949036,-0.0485030710697174,0.0027162432670593,-0.0081297978758811,0.0027846097946166,0.0338589724754984,-0.0239592858639256,0.0002981756727805,0.9991393273939964
15724.691677625,-0.065521240234375,-0.0671539306640625,-1.014389038085938,15724.681737625,0.0016907229275939,-0.056123866043124,0.0678033154119173,0.0166024267673492,-0.8590604662895203,-0.0611565485596656,0.003154844045639,-0.00028757750988,0.0051187872886657,0.0339055126010229,-0.0280134751251236,-0.0001064956622803,0.999032363998407
15724.701618625,-0.075042724609375,-0.0745849609375,-1.020126342773438,15724.691677625,0.0010407687800181,-0.0647448599620218,0.0681388755132945,0.0432257801294326,-0.9030043482780457,-0.0618807934224605,0.0049334093928337,0.0114760398864746,-0.0130778551101684,0.0340618276031469,-0.032330271074982,-0.000582694385054,0.9988965380919144
15724.711558625,-0.0863800048828125,-0.0563201904296875,-1.008941650390625,15724.701618625,0.0007324858690582,-0.0740240053771435,0.0684816949286904,0.0157784447073936,-0.9876723289489746,-0.0089805610477924,0.0082618221640586,0.0012742280960083,-0.0194650888442993,0.034224252336779,-0.0369693299812668,-0.0009010076946866,0.9987297981668448
15724.721498625,-0.08935546875,-0.0701141357421875,-0.9981536865234376,15724.711558625,0.0005532446921786,-0.0841732496034853,0.0684361391707859,-0.0174641963094472,-1.055233836174011,-0.0387588292360305,0.0088343545794487,-0.0062022507190704,-0.025999367237091,0.0341927275082418,-0.0420401139124224,-0.0011632012464222,0.9985300129756252
15724.731438625,-0.096466064453125,-0.0850677490234375,-0.991943359375,15724.721498625,9.06019552488341e-06,-0.0945654406692842,0.0683668513455793,-0.0001198281534016,-1.053637862205505,-0.0647225156426429,0.007823958992958,0.0119933933019638,-0.0157352685928344,0.034138787646965,-0.0472373396171858,-0.0016108463621735,0.9982988005402263
15724.741379625,-0.1104888916015625,-0.08233642578125,-0.98870849609375,15724.731438625,-0.0006398841495182,-0.1051060543831075,0.0688208867639993,0.0763959884643554,-1.086872696876526,-0.0756068602204322,0.0153088122606277,-0.001347579061985,-0.0060263872146606,0.0343393563493012,-0.0525087315253667,-0.0021264949125621,0.998027650881448
15724.751319625,-0.128387451171875,-0.06964111328125,-0.9913787841796876,15724.741379625,-0.0013928023520439,-0.1161434056598269,0.0697581264905472,0.0867554172873497,-1.148476719856262,-0.1000988855957985,0.0191345587372779,-0.0153662115335464,-0.0010961294174194,0.0347728060302824,-0.0580279986682897,-0.0027187417918954,0.997705473956932
15724.761259625,-0.1366729736328125,-0.0741729736328125,-0.9878692626953124,15724.751319625,-0.0025042165519306,-0.1274427576470489,0.0706537278441068,0.0619896166026592,-1.142515301704407,-0.1365801990032196,0.0162920653820037,-0.0117414891719818,0.0007069706916809,0.0351681272776156,-0.0636826229751202,-0.0034978714545955,0.9973441491297228
15724.771199625,-0.1498870849609375,-0.069580078125,-0.9901580810546876,15724.761259625,-0.003691938520757,-0.1386301790580467,0.0712459314699691,0.0283568203449249,-1.146406412124634,-0.1150727719068527,0.0094485431909561,0.0015445351600646,-0.0034851431846618,0.0354020761890582,-0.0692811246596918,-0.0043070731433124,0.996959539783506
15724.781139625,-0.1583251953125,-0.083740234375,-0.97174072265625,15724.771199625,-0.0048586279085643,-0.1502152220145572,0.0718161831274383,0.0581349544227123,-1.208868026733398,-0.133430615067482,0.0125922113656997,-0.0024185329675674,-0.0016790032386779,0.0356168867045053,-0.0750753901684129,-0.0051147501648339,0.996528460550964
15724.791080625,-0.1685028076171875,-0.077239990234375,-0.9664459228515624,15724.781139625,-0.0059198047308691,-0.1622559589824601,0.072512476238495,0.0381420738995075,-1.228619933128357,-0.0939162224531173,0.0112333446741104,0.0028688460588455,-0.0058860778808593,0.0358892072725815,-0.0810923473526233,-0.0058857381723806,0.9960427648288244
15724.801020625,-0.177398681640625,-0.07965087890625,-0.99774169921875,15724.791080625,-0.0066681622479739,-0.1743234476417435,0.0728467149693179,-0.000555254984647,-1.22480046749115,-0.0619799941778183,0.0146566778421402,-0.0109579563140869,0.0104914307594299,0.0359868213235268,-0.0871141337809643,-0.0064892012703453,0.995526953145838
15724.810960625,-0.192474365234375,-0.078094482421875,-0.9963836669921876,15724.801020625,-0.0070643285318231,-0.1867697035594232,0.0724884710604802,-0.0688163340091705,-1.27303421497345,-0.0077822715975344,0.0166953057050705,-0.0048150122165679,0.0135827660560607,0.0357490322561757,-0.0933147914409456,-0.0068934411363798,0.9949707793109852
15724.820900625,-0.207855224609375,-0.080322265625,-0.9928741455078124,15724.810960625,-0.0071856363339929,-0.199166110563282,0.0720337622165908,-0.0188290663063526,-1.230292797088623,-0.0007094484753906,0.0199402272701263,-0.0076794177293777,-0.0200518369674682,0.0354735054085005,-0.0994821671169235,-0.0071526416542839,0.9943810377191707
15724.830841625,-0.2204742431640625,-0.073516845703125,-0.9682769775390624,15724.820900625,-0.0071595715976994,-0.2117907369436142,0.0719566945042413,-0.0042413361370563,-1.332787752151489,0.0179798156023025,0.0171926468610763,-0.0061998888850212,-0.0212575197219848,0.0353907325531281,-0.1057565319256234,-0.0073594008749499,0.9937348036767112
15724.840781625,-0.2293701171875,-0.0743560791015625,-0.9648590087890624,15724.830841625,-0.0069779179933642,-0.2253132158504119,0.0718614581597822,0.0079847034066915,-1.380216240882874,0.0097727533429861,0.0149798393249511,-0.0085226595401763,-0.0206656455993652,0.0353030947142885,-0.1124697600740339,-0.0075029815890661,0.992999452691188
15724.850721625,-0.2342529296875,-0.0875091552734375,-0.9524688720703124,15724.840781625,-0.0070306833845013,-0.2389245988658145,0.0723227170155152,0.0703796371817588,-1.361820459365845,-0.0289485435932874,0.0155650079250335,-0.0012571811676025,0.0007761716842651,0.0354769061711161,-0.1192258886997249,-0.0077966832361136,0.9922025324021034
15724.860661625,-0.2612762451171875,-0.075927734375,-0.976531982421875,15724.850721625,-0.0070606564382197,-0.2519012770436694,0.0732444107920814,0.0956114903092384,-1.25982666015625,-0.0170130543410778,0.0192072987556457,-0.0011771619319915,0.0009847283363342,0.0358805872454081,-0.1256611174945099,-0.0080993546395586,0.9913911160088156
15724.870602625,-0.28314208984375,-0.0694732666015625,-0.9915618896484376,15724.860661625,-0.006914090107608,-0.264508943722084,0.0741381456846954,0.0862635299563407,-1.305439710617065,-0.0087063889950513,0.0264642536640167,-0.0134389325976371,0.0101007223129272,0.0362811538611031,-0.1319048783956417,-0.0083116161748727,0.9905633500244786
15724.880542625,-0.2970123291015625,-0.06488037109375,-0.993194580078125,15724.870602625,-0.0067870483263454,-0.2781657904934177,0.0748291481532004,0.063431978225708,-1.438882827758789,0.0008278610184788,0.0125477313995361,-0.0011684224009513,-0.0176621079444885,0.0365742933344143,-0.1386628130190821,-0.0085441227027452,0.9896271923752544
15724.890482625,-0.30426025390625,-0.0759735107421875,-0.96612548828125,15724.880542625,-0.0066128046564377,-0.2929284364540056,0.0754069552024038,0.060999184846878,-1.551431775093079,-0.0048081865534186,0.0047945082187652,0.005862221121788,-0.0368801951408386,0.0368085590063077,-0.1459599045250573,-0.0087698246634501,0.9885666358274554
15724.900422625,-0.3189849853515625,-0.081390380859375,-0.957244873046875,15724.890482625,-0.0065528432234423,-0.3088525471859628,0.0759655220561289,0.0382379479706287,-1.644885182380676,-0.0149019658565521,0.0060767531394958,0.0110120922327041,-0.0432590842247009,0.0370179451718805,-0.153824393324702,-0.0090759054697461,0.9873628634742978
15724.910363625,-0.3204803466796875,-0.082183837890625,-0.9391021728515624,15724.900422625,-0.0066300386724687,-0.3254745605930239,0.0765190164952373,0.0722723454236984,-1.709999442100525,-0.0354200229048728,0.0145625472068786,0.000470831990242,-0.021398901939392,0.037207882829499,-0.162025598084175,-0.0094660769588637,0.9860393465773672
15724.920303625,-0.3366241455078125,-0.1008148193359375,-0.928985595703125,15724.910363625,-0.0066791956008256,-0.3425566141271847,0.0773346884858886,0.0648272186517715,-1.71077835559845,-0.0173326339572668,0.015907347202301,-0.0041327774524688,-0.0181610584259033,0.0375230672308805,-0.170440964402894,-0.0098771320698529,0.984603549487592
15724.930243625,-0.3571319580078125,-0.088958740234375,-0.9281005859375,15724.920303625,-0.0063765917365691,-0.3590488818398059,0.0779611114535438,0.0764228850603103,-1.621350765228271,0.036026194691658,0.0298362970352172,-0.0043016970157623,-0.005714476108551,0.03777530814396,-0.1785473851139487,-0.0100933037077873,0.9831540677111728
15724.940183625,-0.3761444091796875,-0.076416015625,-0.92938232421875,15724.930243625,-0.0055639089809025,-0.3754219354708531,0.0785656721982996,0.10002301633358,-1.666893839836121,0.0656177774071693,0.0289098918437957,-0.0223299711942672,-0.0015024542808532,0.0380639789562511,-0.1865732203989815,-0.0100596542835448,0.9816518098320394
15724.950124625,-0.399810791015625,-0.072235107421875,-0.93408203125,15724.940183625,-0.0045011373954901,-0.3926138086576735,0.0794048554465687,0.1350731402635574,-1.786394476890564,0.0662185847759246,0.0242671370506286,-0.0096373185515403,-0.0070995688438415,0.0384909336177994,-0.1949819103177586,-0.0099474461046551,0.980000841310311
15724.960064625,-0.426727294921875,-0.064849853515625,-0.94024658203125,15724.950124625,-0.0035515807595548,-0.4111458826895715,0.0803857925360677,0.0962660983204841,-1.92518138885498,0.0268326960504055,0.0222249925136566,0.0038832128047943,-0.0156789422035217,0.0389737529570975,-0.2040327500406124,-0.0099392723884332,0.9781374223452016
15724.970004625,-0.439117431640625,-0.066314697265625,-0.92474365234375,15724.960064625,-0.0034227308044218,-0.4304767371354037,0.0809347980931969,0.0368901193141937,-1.954204797744751,-0.049861017614603,0.0161273181438446,0.0086113363504409,-0.0282899141311645,0.0391575730146322,-0.2134727721938934,-0.010311174949625,0.9761094874352304
15724.979944625,-0.4659423828125,-0.08447265625,-0.91058349609375,15724.970004625,-0.0039249718527833,-0.4496995631383474,0.0813302203966308,-0.0132990125566721,-1.948219418525696,-0.0661519691348075,0.0065308213233947,0.016390711069107,-0.0426456928253173,0.0391932778941209,-0.2228529512494759,-0.0109756768539562,0.9740020352954678
15724.989885625,-0.4809112548828125,-0.0982818603515625,-0.9187469482421876,15724.979944625,-0.0043259968762962,-0.4693320519303296,0.0815100490238738,0.016262074932456,-2.019923210144043,-0.0147500336170196,0.011671632528305,0.0151051059365272,-0.0358341336250305,0.0391244296060541,-0.2324102707601093,-0.0115756052979108,0.9717616764093868
15724.999825625,-0.4794464111328125,-0.0875091552734375,-0.8994293212890625,15724.989885625,-0.004088127957084,-0.4901236688539379,0.0816354733151111,0.0325347855687141,-2.168106555938721,0.0355236567556858,0.0032249689102172,-0.0029278397560119,-0.031247079372406,0.0390916114337887,-0.242494650017962,-0.011881618482147,0.9692919829377112
15725.009765625,-0.486785888671875,-0.08673095703125,-0.8289947509765625,15724.999825625,-0.0033880136205344,-0.5129382702986767,0.0822345749779504,0.1542849242687225,-2.441206932067871,0.0344847589731216,0.0081698894500732,-0.0161399617791175,-0.0503850579261779,0.0393317970904994,-0.2535193587107865,-0.0120643487228233,0.9664550626623912
15725.019706375,-0.50140380859375,-0.1038360595703125,-0.827728271484375,15725.009765625,-0.0021856025184322,-0.5377429725961158,0.0833610711929615,0.1467473804950714,-2.484021186828613,0.0640431866049766,0.0309738516807556,-0.0042446106672286,-0.0435448288917541,0.0398813079628121,-0.2654566751445104,-0.0121215813670376,0.9632212723425494
15725.029647375,-0.53509521484375,-0.0832672119140625,-0.8520660400390625,15725.019706375,-0.0005189250386459,-0.5622788525077529,0.0842254561652887,0.2006590813398361,-2.458577156066895,0.1269843280315399,0.0444399118423461,-0.002605065703392,0.0140485763549804,0.0403754969428396,-0.2772150231592712,-0.0119298006949172,0.9598850274496464
15725.039587375,-0.5702056884765625,-0.059967041015625,-0.84185791015625,15725.029647375,0.0020002115645935,-0.587416426420728,0.0852318604179998,0.221232533454895,-2.551653623580933,0.1797518134117126,0.0507967472076416,-0.0187073796987533,0.0016254782676696,0.0410678923674014,-0.2891998664229324,-0.01137731954121,0.956319654280095
15725.049527375,-0.56878662109375,-0.0824737548828125,-0.820281982421875,15725.039587375,0.0045111585686915,-0.6132589120845913,0.0860888958975172,0.2187754958868027,-2.59208083152771,0.1289805024862289,0.0383089780807495,0.0027153640985488,-0.0373178124427795,0.0417041325427596,-0.3014741401867681,-0.010840417117013,0.9525001622425404
15725.059467375,-0.58837890625,-0.0892791748046875,-0.7774200439453125,15725.049527375,0.0069196155775278,-0.6390857682076572,0.0872056969208094,0.2429884225130081,-2.543792963027954,0.13568314909935,0.0239896178245544,0.0271281450986862,-0.0422665476799011,0.0424680737021469,-0.3136889965060938,-0.010411114624133,0.9485184624426596
15725.069408375,-0.6129302978515625,-0.09130859375,-0.773406982421875,15725.059467375,0.0094819066701926,-0.6632660411566715,0.0884743735445933,0.2625091373920441,-2.283011913299561,0.1134873032569885,0.0444989800453186,0.0058852136135101,-0.0353784561157226,0.0433547566524295,-0.3250670953927822,-0.0099199912941054,0.9446445345770038
15725.079348375,-0.6388702392578125,-0.07366943359375,-0.7671661376953125,15725.069408375,0.0119669036244244,-0.6855153959123413,0.0900635475704905,0.2832421064376831,-2.175542831420898,0.0855805650353431,0.0421273708343505,0.0006626397371292,-0.0064645409584045,0.0444061499132488,-0.3354852513184131,-0.0094994916755515,0.9409503058913534
15725.089288375,-0.6622772216796875,-0.06976318359375,-0.77557373046875,15725.079348375,0.0142775334538121,-0.7078183253533576,0.0915419403520613,0.236958235502243,-2.310784816741943,0.0774440765380859,0.0345251560211181,0.0001055300235748,-0.0168060660362243,0.0453896871491448,-0.3458891683443048,-0.0091675091199842,0.9371320071055768
15725.099228375,-0.670745849609375,-0.0931854248046875,-0.7588958740234375,15725.089288375,0.0163528524913715,-0.7321016098770491,0.0926805285326629,0.2239153981208801,-2.532567262649536,0.0858945474028587,0.0266952514648437,0.0188784450292587,-0.0265870094299316,0.0461766255024082,-0.3571808192381723,-0.0089536704674809,0.9328501506676158
15725.109169375,-0.6839447021484375,-0.0973052978515625,-0.710693359375,15725.099228375,0.0186397185862618,-0.7580258434611616,0.0940666435090239,0.2927314937114716,-2.616261005401611,0.0547030791640281,0.0221725702285766,0.0241647735238075,-0.0525896549224853,0.0471218940065993,-0.3691713160503383,-0.0087465963376783,0.92812477562186
15725.119109375,-0.7010498046875,-0.0959014892578125,-0.68719482421875,15725.109169375,0.0210258983363627,-0.7838132163222203,0.0959395435019027,0.3084177672863007,-2.542664527893066,0.0264124497771263,0.0319927334785461,0.002606987953186,-0.0539261698722839,0.0483241146083314,-0.3810248270371981,-0.008609543157392,0.9232609326382756
15725.129049375,-0.7063140869140625,-0.118682861328125,-0.667266845703125,15725.119109375,0.0233002176418175,-0.8088688838813859,0.0980603144855342,0.3122713565826416,-2.421346664428711,-0.0210858266800642,0.0360863804817199,0.0005979239940643,-0.0236924290657043,0.0496322316362894,-0.3924744399168717,-0.008587150918537,0.9183826455644314
15725.138989375,-0.7217864990234375,-0.0990447998046875,-0.6466064453125,15725.129049375,0.0257963987409717,-0.8330269003481173,0.1003048629007911,0.3551594316959381,-2.435373067855835,0.0648029819130897,0.0352016687393188,0.0042352527379989,-0.0179366469383239,0.0510531899909965,-0.403440829724671,-0.0084998890115785,0.9135408318714217
15725.148930375,-0.745391845703125,-0.0727386474609375,-0.62823486328125,15725.138989375,0.029082986104027,-0.8575841292154762,0.1016360100822707,0.3014011383056641,-2.420825719833374,0.1399912089109421,0.0460473895072937,-0.0172217637300491,-0.016376793384552,0.0522305443148248,-0.4145201310709535,-0.0079099123007675,0.9085055941987747
15725.158870375,-0.74945068359375,-0.0898284912109375,-0.608551025390625,15725.148930375,0.0318044324735051,-0.8808662931954325,0.1026384913600235,0.2461362779140472,-2.215956211090088,0.0645818039774894,0.0454450249671936,0.0034135654568672,-0.0134728550910949,0.0531658646605746,-0.4249783635396131,-0.0075015593515451,0.9036096353480608
15725.168810375,-0.7697601318359375,-0.091217041015625,-0.5840301513671875,15725.158870375,0.0337664042321144,-0.9024801648266412,0.1034157034088536,0.1597502678632736,-2.119266748428345,0.0609801448881626,0.0352811217308044,0.0304927974939346,-0.0118802785873413,0.0538571645521447,-0.4346516858595615,-0.0073633103681215,0.8989566852743862
15725.178750375,-0.7898712158203125,-0.110198974609375,-0.545074462890625,15725.168810375,0.0351456491258054,-0.9225742635549584,0.1037701690813563,0.0860246419906616,-1.83750331401825,0.0270268414169549,0.0434197187423706,0.013755515217781,-0.0080288052558898,0.0542448134073867,-0.4436173955434226,-0.0073660483033894,0.8945428304743323
15725.188691375,-0.7962188720703125,-0.1323394775390625,-0.5560302734375,15725.178750375,0.0351637782037541,-0.9387633647773044,0.1038732415788549,-0.0660509094595909,-1.412616968154907,-0.0368669182062149,0.0327191948890686,0.012469470500946,0.0035716891288757,0.0542333683925737,-0.4508411832367155,-0.0078201294986406,0.8909208450174511
15725.198631375,-0.7979278564453125,-0.123291015625,-0.553466796875,15725.188691375,0.0340289505102919,-0.9510630645967896,0.1037253001119379,-0.1187530010938644,-1.117562651634216,-0.0651997551321983,0.0197870731353759,-0.0066595822572708,0.0326219201087951,0.0538596932483907,-0.4563452237270637,-0.0086235762707577,0.8881293506340939
15725.208571375,-0.814544677734375,-0.098358154296875,-0.55670166015625,15725.198631375,0.0326899006932254,-0.9618291581652216,0.1034198768690001,-0.1293486505746841,-1.127401351928711,-0.0406121239066124,0.0196377635002136,-0.0291038826107978,0.0129339694976806,0.0533686200690686,-0.4611612316865726,-0.0094356971514684,0.8856596102484406
15725.218511375,-0.831024169921875,-0.0838470458984375,-0.5789947509765625,15725.208571375,0.0316827928105873,-0.9742367585139512,0.1029636837478245,-0.0880171954631805,-1.411080837249756,0.0087698064744472,0.0249642133712768,-0.0205091908574104,0.0053575038909912,0.0528728799959876,-0.4666822406077936,-0.0101043483550995,0.8827853874335352
15725.228452375,-0.8302001953125,-0.0793609619140625,-0.5610198974609375,15725.218511375,0.0313419816435643,-0.989799212256544,0.1023813271099201,-0.0305576287209987,-1.728057503700256,0.0357172712683677,0.0169939398765564,0.0038443952798843,-0.0107179284095764,0.0524562022828733,-0.4735573033345616,-0.0105269646597202,0.879136457941914
15725.238392375,-0.8321533203125,-0.0991363525390625,-0.50958251953125,15725.228452375,0.0313773309643251,-1.00831673738898,0.1020489777929804,-0.000104914419353,-1.990987420082092,0.0213986504822969,0.0105102658271789,0.0180248767137527,-0.0484837293624877,0.0522197751383711,-0.4816820617841721,-0.0109164501090498,0.8747206442316598
15725.248332375,-0.849334716796875,-0.1028289794921875,-0.496795654296875,15725.238392375,0.0313441154201465,-1.028304071668813,0.1018495741231685,-0.0416249260306358,-2.007109403610229,0.0069512673653662,0.0217863321304321,0.0223125964403152,-0.0474233031272888,0.0520132802652152,-0.4904042502162795,-0.011403176724763,0.8698667500672208
15725.258272375,-0.8516387939453125,-0.1005096435546875,-0.4990386962890625,15725.248332375,0.0305908322117621,-1.048179378545515,0.1017299314924369,-0.0989079251885414,-2.020624876022339,-0.0597879514098167,0.0298826694488525,0.0024181827902793,-0.0130136609077453,0.0516577385368143,-0.4990461420671343,-0.0122153340541974,0.8649480920826562
15725.268213375,-0.8776702880859375,-0.097686767578125,-0.5091552734375,15725.258272375,0.0295389121076196,-1.06859901862066,0.1017501235616813,-0.0697726756334304,-2.12346339225769,-0.0482053309679031,0.0226588249206543,-0.0012543573975563,-0.0179325342178344,0.0512718873514473,-0.5078775796589491,-0.0131994663813048,0.8598007756046329
15725.278153375,-0.8731842041015625,-0.0913848876953125,-0.4734039306640625,15725.268213375,0.0291934661792497,-1.090810950081674,0.1019002260637465,0.0192181840538978,-2.375554084777832,0.0001353058032691,0.0307616591453552,0.001214288175106,-0.0396678447723388,0.0510968121309683,-0.5174008833295279,-0.0139545146201031,0.8541023215865728
15725.288093375,-0.8746185302734375,-0.089019775390625,-0.427642822265625,15725.278153375,0.029586151168279,-1.115982167826158,0.1015906487296178,0.0121496208012104,-2.677228450775146,0.0917006433010101,0.0160406827926635,0.0037292093038558,-0.0721248686313629,0.050889772141532,-0.5281051406560031,-0.0143481355899781,0.8475312409119865
15725.298033375,-0.89849853515625,-0.0964813232421875,-0.412628173828125,15725.288093375,0.0301987913957101,-1.143538303477053,0.1002134443564366,-0.0142830517143011,-2.841356515884399,0.2174609750509262,0.0323550701141357,0.0086608827114105,-0.0611060857772827,0.0502745943237398,-0.5397439430787516,-0.0144180057392455,0.8402029990805674
15725.307974375,-0.9027557373046876,-0.0868988037109375,-0.3482208251953125,15725.298033375,0.0310793804613487,-1.172080103000905,0.0979742162701546,0.0017869952134788,-2.865662813186646,0.2420036047697067,0.0425221920013427,0.008797749876976,-0.0412691235542297,0.0493755623928858,-0.5517020750722758,-0.0141483643701326,0.8324582240738676
15725.317914375,-0.919769287109375,-0.09808349609375,-0.3296661376953125,15725.307974375,0.0317914644841027,-1.199761868862746,0.0957793946734723,-0.0363452099263668,-2.697507619857788,0.2358506172895432,0.0291828513145446,-0.0008483305573463,-0.051710307598114,0.0484713692476859,-0.5631976443713105,-0.0139173137170163,0.8247819762750596
15725.327854375,-0.9303741455078124,-0.0885009765625,-0.3373870849609375,15725.317914375,0.0321418851222726,-1.226351986010358,0.09323591775498,-0.0662218853831291,-2.657877206802368,0.2656873464584351,0.0344193577766418,0.0062020644545555,-0.0120137333869934,0.0473444413059,-0.5741558647271873,-0.0136855863237313,0.8172614641214981
15725.337794375,-0.9339447021484376,-0.07867431640625,-0.3132781982421875,15725.327854375,0.0326393727585593,-1.253385178071435,0.0905013851970666,-0.0132936872541904,-2.783050298690796,0.2870604395866394,0.0263893008232116,-0.0077056288719177,-0.0188353955745697,0.0461951591037195,-0.5851927892484506,-0.0133211739496055,0.8094677603562633
15725.347735375,-0.943878173828125,-0.0758514404296875,-0.28131103515625,15725.337794375,0.0336422224249087,-1.282085394183308,0.0878011282291805,0.0426177829504013,-2.988563776016235,0.2971985638141632,0.0245449542999267,-0.0008126348257064,-0.0537671148777008,0.0452182131641158,-0.5967791231281278,-0.0127737405606429,0.8010285334086409
15725.357675375,-0.966796875,-0.075469970703125,-0.2220001220703125,15725.347735375,0.0350258836454564,-1.312568725737009,0.0850137974774234,0.0661425441503524,-3.101576805114746,0.312982976436615,0.0294076204299926,0.006237082183361,-0.0588331520557403,0.0443372199649291,-0.6089430755437683,-0.0120633082719422,0.7918820173346369
15725.367615375,-0.9748992919921876,-0.089691162109375,-0.1775360107421875,15725.357675375,0.0360381839707431,-1.343623962258151,0.081813013248113,-0.0247825644910335,-3.117529630661011,0.3750625848770142,0.0271701216697692,0.0058703199028968,-0.0568409860134124,0.0432083912881346,-0.6212068840202413,-0.0113583005163393,0.7823719580768577
15725.377555375,-0.9882049560546876,-0.0931854248046875,-0.14239501953125,15725.367615375,0.0365525756036658,-1.373521193687157,0.0779305136764735,-0.0321552604436874,-2.841670989990234,0.3982895910739899,0.0108312368392944,0.0023816749453544,-0.0265969932079315,0.0416977094030926,-0.6328978772344911,-0.0105733712549876,0.7730392063837961
15725.387496375,-0.994873046875,-0.0773162841796875,-0.1065673828125,15725.377555375,0.0367537781027473,-1.399822753474039,0.0738994854381532,-0.0882313102483749,-2.426975011825562,0.3951449394226074,0.007830798625946,-0.0158589407801628,-0.0078585743904113,0.0400803554896308,-0.6430823026828074,-0.0097456558577066,0.7646853793466426
15725.397436375,-0.96588134765625,-0.10528564453125,-0.103851318359375,15725.387496375,0.0358812582091954,-1.421371799255732,0.0702423951189793,-0.1948634833097458,-1.927861571311951,0.3079642355442047,-0.0017865896224975,-0.0230008065700531,0.0061069577932357,0.0383049049341143,-0.6513691239251047,-0.0093146975246776,0.7577363021928142
15725.407376375,-0.96826171875,-0.092132568359375,-0.0932769775390625,15725.397436375,0.034347191210293,-1.437867301899007,0.0672328979751872,-0.1830624788999557,-1.416035890579224,0.25138059258461,-0.0059344768524169,-0.0101340562105178,0.025671049952507,0.0365914522532512,-0.6576791278354577,-0.0092164339425775,0.752352555471975
15725.417316375,-0.9797210693359376,-0.076507568359375,-0.0992279052734375,15725.407376375,0.0328297656796863,-1.449626365507968,0.064861521378877,-0.18336421251297,-0.9895316958427428,0.172404944896698,0.0246992111206054,-0.0404696017503738,0.016768179833889,0.0351476833283243,-0.6621592694950653,-0.0092132400474528,0.7484815846028369
15725.427257375,-0.982452392578125,-0.0752105712890625,-0.087677001953125,15725.417316375,0.0311364008516353,-1.458202536319007,0.0632788552864493,-0.1861653327941895,-0.7772327065467834,0.1166415438055992,0.0234175324440002,-0.0288959592580795,0.0188541412353515,0.033954970018773,-0.6654182729561438,-0.0094680355477718,0.7456379087695088
15725.437197375,-0.9811859130859376,-0.069244384765625,-0.0665283203125,15725.427257375,0.0293545067511427,-1.465269551354089,0.0619257294318095,-0.2010766416788101,-0.6767841577529907,0.1106245368719101,0.0128100514411926,-0.0146214216947555,0.0059011727571487,0.0328236359474527,-0.668100329661983,-0.0097977129629551,0.7432821857525773
15725.447137375,-0.99359130859375,-0.05401611328125,-0.0370025634765625,15725.437197375,0.0272815388442491,-1.471253491116011,0.0605868270334623,-0.2556304335594177,-0.5512797832489014,0.1191857978701591,0.0107715725898742,-0.0146608240902423,0.0115191414952278,0.0316035075549228,-0.6703753647915861,-0.0102150026013423,0.7412783994122193
15725.457077375,-0.991729736328125,-0.0623016357421875,-0.0576324462890625,15725.447137375,0.0240949911109692,-1.475165073874894,0.0591576838115964,-0.4103632867336273,-0.2628893852233887,0.0980707928538322,0.0125036239624023,-0.0101212188601493,0.0287901759147644,0.0299846257036949,-0.6718940851019229,-0.0109752560344524,0.7399586382556961
15725.467018375,-0.9906768798828124,-0.068939208984375,-0.1157073974609375,15725.457077375,0.0197402673853661,-1.476295465888105,0.0578371362081411,-0.4601297676563263,-0.0385287106037139,0.077416643500328,0.0002822279930114,0.0037887617945671,0.0571998953819274,0.0280264258625447,-0.672393688479706,-0.0121582630238196,0.7395630407147487
15725.476958375,-0.9820709228515624,-0.0655975341796875,-0.1112518310546875,15725.467018375,0.0157769133658525,-1.475889997814023,0.0569373538315095,-0.3440564274787903,0.0575701631605625,0.0297448635101318,0.0021568536758422,-0.0053950734436511,0.0369778722524642,0.0263640286598298,-0.6723092714070292,-0.0133157865285797,0.7396809872909951
15725.486898375,-0.9875335693359376,-0.064544677734375,-0.1068878173828125,15725.476958375,0.0129135755236498,-1.474840786965506,0.0564821828293685,-0.2433149069547653,0.1188809126615524,0.0088038956746459,0.0031356215476989,-0.0124870762228965,-0.0200518369674682,0.0252406546532741,-0.6719636303819644,-0.014208433131356,0.7400175548127798
15725.496838375,-0.9958343505859376,-0.0809326171875,-0.093719482421875,15725.486898375,0.0108425186325583,-1.473175062665516,0.0562734520385125,-0.1764551848173141,0.1946128457784653,-0.0012031984515488,0.0115925669670105,-0.0093538016080856,-0.0139398574829101,0.0244799997378365,-0.6713752509056518,-0.0148841959588615,0.7405636301665434
15725.506779375,-0.9919891357421876,-0.07745361328125,-0.1025390625,15725.496838375,0.0092391666340519,-1.470668110169365,0.0560107922587674,-0.1544026136398315,0.290075957775116,0.0266145840287208,0.0058974623680114,-0.0085631869733333,-0.0070835873484611,0.0238638050868616,-0.6704687958183773,-0.0153597852968584,0.7413946971281122
15725.516719375,-0.9827423095703124,-0.0551910400390625,-0.1281890869140625,15725.506779375,0.0079749769189119,-1.467522286117511,0.0554550639735953,-0.0957195907831192,0.30718594789505,0.0532609745860099,-0.0026913881301879,-0.0255059972405433,0.0092125535011291,0.0232586114376117,-0.6693227886815318,-0.0156054981801707,0.7424435924194598
15725.526659375,-0.982147216796875,-0.048065185546875,-0.12701416015625,15725.516719375,0.0074311424762524,-1.464784559184921,0.0549739725986031,-0.0293381661176681,0.2313484400510788,0.0282853208482265,0.0008946657180786,-0.0225073508918285,0.0031144022941589,0.0229194483877732,-0.6683172678377041,-0.0156149804727573,0.7433591815405362
15725.536600375,-0.9831390380859376,-0.0574798583984375,-0.1164398193359375,15725.526659375,0.0072804056682146,-1.462905536548296,0.0549933488212892,0.0016256077215075,0.1474165618419647,-0.0349931195378303,0.0099402070045471,-0.0002254284918308,-0.0206702947616577,0.0228909975744227,-0.6676200986361482,-0.0156559816497779,0.743985441596272
15725.546540375,-0.989776611328125,-0.058502197265625,-0.1183319091796875,15725.536600375,0.0073526656391478,-1.461664656508073,0.0555270217050787,0.0234613977372646,0.103393167257309,-0.05964120849967,0.0103718042373657,0.0074332915246486,-0.0182668417692184,0.023123408036639,-0.667151899385863,-0.0157929458145853,0.7443951277706743
15725.556480375,-0.9892730712890624,-0.0599212646484375,-0.117950439453125,15725.546540375,0.0075780016701666,-1.460831776864504,0.0561574281622134,0.0394076071679592,0.0623158141970634,-0.0603454820811748,0.0092540979385375,-0.0013519562780857,-0.0068697780370712,0.0234397930253905,-0.6668324760721935,-0.0159096529325982,0.7446688924702228
15725.566420375,-0.985107421875,-0.060760498046875,-0.1071319580078125,15725.556480375,0.0080056600033108,-1.460499465911004,0.0567884316693498,0.0554161332547664,0.0114568937569856,-0.0537040904164314,0.0025447010993957,-0.00174430757761,-0.0084359645843505,0.0238199285011704,-0.66669681807112,-0.0159568960784484,0.7447774208057466
15725.576361375,-0.984893798828125,-0.0588226318359375,-0.107269287109375,15725.566420375,0.0084149967731348,-1.460690332374046,0.0572236864677282,0.0364488363265991,-0.0454954393208026,-0.0216261819005012,0.0030445456504821,-0.0027288272976875,-0.0082466602325439,0.0241169070259435,-0.6667581839944374,-0.0159518941762482,0.7447130191891502
15725.586301375,-0.9833221435546876,-0.065582275390625,-0.09979248046875,15725.576361375,0.0086909542953536,-1.461405476657761,0.057310721527759,0.017928946763277,-0.0925281941890716,0.0088579580187797,0.0072833895683288,-0.0034811645746231,0.001861572265625,0.0242356272857116,-0.6670201266093221,-0.0158868311535661,0.7444759109291538
15725.596241375,-0.991729736328125,-0.0648193359375,-0.1079864501953125,15725.586301375,0.0086872625941629,-1.462250499124824,0.0571805700178426,-0.0180703327059745,-0.0677757412195205,0.0116421580314636,0.0075961947441101,-0.0016732364892959,0.0008864998817443,0.0241792624236975,-0.6673361124115488,-0.0158550023543677,0.7441952415200328
15725.606181375,-0.9986572265625,-0.058563232421875,-0.1176910400390625,15725.596241375,0.0086086291654957,-1.46273400201041,0.0572150817135934,0.0081133339554071,-0.0405648946762085,-0.0233432557433843,0.0092180371284484,-0.0083984211087226,0.0078831389546394,0.0241620206852541,-0.667516571846848,-0.0159016238878094,0.7440328799871886
15725.616122375,-0.9868927001953124,-0.0620574951171875,-0.1082763671875,15725.606181375,0.0088708988676783,-1.463032174392145,0.0575010700160836,0.0522520318627357,-0.0899325460195541,-0.0232278071343898,0.0008261799812316,-0.0073499791324138,-0.0006085187196731,0.0243535519196491,-0.667621098496829,-0.0159031599195008,0.7439329285277735
15725.626062375,-0.9863739013671876,-0.057342529296875,-0.100830078125,15725.616122375,0.0094438858597224,-1.463821802303397,0.0574866948714619,0.0692203640937805,-0.1407983899116516,0.0084345154464244,-0.0060159564018249,-0.0011082179844379,-0.0110968351364135,0.0245332801985764,-0.6679079274019473,-0.0156949176671133,0.7436738390075954
15725.636002375,-0.987030029296875,-0.055877685546875,-0.1014251708984375,15725.626062375,0.0100709404345085,-1.465264152462016,0.0574369096880287,0.0560313239693641,-0.1792283356189728,0.0090672820806503,0.0059040784835815,-0.0046521872282028,-0.0031136870384216,0.0247130341388475,-0.6684369239966927,-0.0154629507577013,0.7431972839845933
15725.645942375,-0.9947509765625,-0.0572357177734375,-0.0944671630859375,15725.636002375,0.0106175345620414,-1.466785869270322,0.0574578387860148,0.0554691329598426,-0.1671455800533295,0.0061489902436733,0.0065805912017822,8.366629481315613e-05,0.002821609377861,0.0248918661748602,-0.6689951735808503,-0.0152857735289042,0.7426926343099668
15725.655883375,-0.991241455078125,-0.053131103515625,-0.0948638916015625,15725.645942375,0.0111068394965019,-1.468047389955333,0.0573783445496123,0.0461201034486293,-0.1428260207176208,0.031503215432167,0.006058931350708,0.0014691613614559,0.0009742453694343,0.0250165111875134,-0.6694583308251458,-0.0150932592372112,0.7422747515208739
15725.665823375,-0.9970550537109376,-0.047576904296875,-0.0954437255859375,15725.655883375,0.0115834388861665,-1.469377549611854,0.0570277577410169,0.0414257496595382,-0.1422606259584427,0.0600618869066238,-0.0015067458152771,-0.0002388879656791,0.0066132023930549,0.0250361164808361,-0.6699499913754059,-0.0148156359141446,0.741835936798826
15725.675763375,-0.9866790771484376,-0.0500030517578125,-0.099151611328125,15725.665823375,0.0120866604906677,-1.470698612069327,0.0565446424950858,0.046315848827362,-0.1431307196617126,0.0503356270492076,0.0021626949310302,0.003383383154869,0.0049069970846176,0.0250159780927171,-0.6704392099072627,-0.0144836130364779,0.741401182619946
15725.685703375,-0.9757232666015624,-0.063507080078125,-0.085479736328125,15725.675763375,0.0126509905140419,-1.472213086109779,0.0564665651548042,0.0572795495390892,-0.1616276949644089,0.0180653054267168,-0.0034965276718139,0.0088596381247043,0.0028230622410774,0.0251654218295786,-0.6709942804592812,-0.0142672953010826,0.7408978892138309
15725.695644375,-0.99261474609375,-0.05950927734375,-0.081573486328125,15725.685703375,0.0131513696273615,-1.473559227459765,0.0565072780260071,0.0414111018180847,-0.1331721246242523,0.0184260290116071,0.0070085525512695,0.0064741373062133,-0.0022226497530937,0.0253388805052784,-0.6714860033776086,-0.014112651507976,0.7404493448382343
15725.705584375,-0.9925994873046876,-0.0576629638671875,-0.0854949951171875,15725.695644375,0.0134512948193552,-1.474181038011679,0.056480826980321,0.0222515240311622,-0.0739141255617141,0.0019943262450397,0.0180259346961975,-0.0070562921464443,0.0108314305543899,0.02542543750944,-0.6717126941332087,-0.0140006349134892,0.7402427903002549
15725.715524375,-0.9889373779296876,-0.060028076171875,-0.08514404296875,15725.705584375,0.0135807404893494,-1.474515999601883,0.0565568972525326,0.0071279648691415,-0.0440966486930847,0.0156390331685543,0.0011623501777648,-0.0029825493693351,0.0144044160842895,0.0254947157400881,-0.6718340958474783,-0.0139825507701649,0.7401306704046021
15725.725465375,-0.985107421875,-0.069854736328125,-0.0839385986328125,15725.715524375,0.0136075306861068,-1.474792794519767,0.0562421999757734,-0.0034298710525035,-0.0328184254467487,0.0528873316943645,0.0012218952178955,-0.0014504306018352,0.0102095603942871,0.0253853769586222,-0.6719399525294567,-0.0138703913247749,0.7400404926381016
15725.735405375,-0.988525390625,-0.060455322265625,-0.0869140625,15725.725465375,0.0136152644470483,-1.474850445512193,0.0555580416077662,-0.0035915244370698,-0.005049180239439,0.0816143155097961,0.0049275755882263,-0.0044986344873905,0.0105068683624267,0.0251345162200219,-0.671969336717463,-0.0136382996860675,0.7400266929272369
15725.745345375,-0.9875640869140624,-0.0572357177734375,-0.081268310546875,15725.735405375,0.0136372514681683,-1.474824646720298,0.0546992629024637,-0.0074467165395617,0.015080589801073,0.1004825457930565,0.0088021159172058,-0.0151827707886695,0.0117424726486206,0.0248244232568326,-0.6719696389501785,-0.0133411867298448,0.740042275265913
15725.755285375,-0.9986724853515624,-0.0530242919921875,-0.08984375,15725.745345375,0.0136158623495508,-1.474571233149442,0.0535461036212418,-0.0148295313119888,0.0396582409739494,0.1189212128520012,0.0054219365119934,-0.0069348216056823,0.009024865925312,0.0243923262954281,-0.6718895253545738,-0.0129584063641649,0.7401361412415821
15725.765226375,-0.9818572998046876,-0.050872802734375,-0.088287353515625,15725.755285375,0.0135902111026614,-1.474078488911439,0.0523299544383324,-0.0140942335128784,0.0612159967422485,0.0929868146777153,0.006399929523468,-0.0049296617507934,0.0151665955781936,0.0239368889445449,-0.6717213445269773,-0.0125532774420357,0.7403106014644874
15725.775166375,-0.9875030517578124,-0.04278564453125,-0.099700927734375,15725.765226375,0.0134881634760132,-1.473415996446829,0.0514469271777083,-0.0200906060636043,0.054767683148384,0.0655522644519805,-0.0047270059585571,-0.0016000755131244,0.0072540715336799,0.0235799316303306,-0.6714872023265407,-0.0122865492559241,0.7405389192617129
15725.785106375,-0.996551513671875,-0.0494232177734375,-0.0967864990234375,15725.775166375,0.0134547217124346,-1.473323495609881,0.051275828415966,0.0043169986456632,0.0011747609823942,0.0315450280904769,0.0120879411697387,0.0003805421292781,0.0089032799005508,0.0235059371144614,-0.6714552476467899,-0.0122403773336958,0.7405710066749287
15725.795046375,-0.9977264404296876,-0.05609130859375,-0.092620849609375,15725.785106375,0.0135657432708824,-1.473796499432103,0.0512048468448671,0.0103541184216737,-0.022004161030054,0.0193337686359882,0.0064916610717773,0.0083968117833137,-0.0029800981283187,0.0235140547721332,-0.6716298590828383,-0.0121809896827484,0.7404133692065292
15725.804987375,-0.9976806640625,-0.0465545654296875,-0.0921783447265625,15725.795046375,0.0137252014890774,-1.474144081491623,0.0512288267624164,0.0203614793717861,0.0029248893260955,0.0090012364089488,-0.0025244951248168,0.0017831809818744,-0.0004112720489501,0.0235743688561238,-0.6717563790403446,-0.0121341085204432,0.7402975003058141
15725.814927375,-0.997528076171875,-0.04815673828125,-0.0985107421875,15725.804987375,0.0140190125951324,-1.474253372501356,0.0513604083997604,0.0319440960884094,0.014385137706995,0.0056557725183665,-0.0036956071853637,-0.0047535076737403,0.003645047545433,0.0237210822545914,-0.6717918836549893,-0.0120708620448061,0.7402616830215805
15725.824867375,-0.9964752197265624,-0.060302734375,-0.0895233154296875,15725.814927375,0.0143918089158358,-1.474478158459682,0.0517530129527293,0.0418324172496795,-0.0044476715847849,0.0137861371040344,-0.0036483407020568,0.0051753185689449,0.0038621872663497,0.0239902126522291,-0.6718661995836767,-0.0120675015391644,0.7401856215758301
15725.834807375,-0.9972381591796876,-0.053466796875,-0.089447021484375,15725.824867375,0.0149291179762178,-1.474745819313123,0.0515702366682677,0.0571913979947567,-0.0126840285956859,0.0734651833772659,-0.0034606456756591,0.0033906213939189,-0.0027353763580322,0.0241015109281306,-0.6719608783137232,-0.0118104477615934,0.740100147584152
15725.844748375,-0.9908599853515624,-0.049285888671875,-0.087188720703125,15725.834807375,0.0156311284657217,-1.475275026451804,0.0506932884952641,0.0555903054773807,-0.0272784177213907,0.1375467032194138,-0.0023126602172851,-0.0096311792731285,0.0057302117347717,0.0240099924736368,-0.6721582636911437,-0.0112622572742731,0.7399323577203094
15725.854688375,-0.98773193359375,-0.0614471435546875,-0.091094970703125,15725.844748375,0.0162562189302259,-1.475690205079301,0.0492576664849431,0.0456625744700431,-0.025237638503313,0.1686018109321594,-0.0029647350311279,-0.0042290687561035,0.005400538444519,0.0236869392049902,-0.6723206931563358,-0.0105532120646707,0.7398056746077651
15725.864628375,-0.976348876953125,-0.0644989013671875,-0.092681884765625,15725.854688375,0.0169424970881695,-1.476030622616188,0.0474590267795788,0.0570859387516975,-0.0137370433658361,0.2190530002117157,0.0035321712493896,-0.0018447078764438,0.0073286145925521,0.0232509039597759,-0.6724586979194009,-0.0096984056656874,0.7397058316003664
15725.874569375,-0.97393798828125,-0.06060791015625,-0.0834808349609375,15725.864628375,0.0178815724731871,-1.475994378759607,0.0449945564190416,0.0853743031620979,0.0026375688612461,0.2822670042514801,0.0067701935768127,-0.0164677910506725,0.0034692287445068,0.0226556382883228,-0.672461612821495,-0.0085216684825343,0.7397360797514343
15725.884509375,-0.98907470703125,-0.043914794921875,-0.069244384765625,15725.874569375,0.0191321921799617,-1.47580187368927,0.0420385031406454,0.0992198064923286,0.045888103544712,0.3513131737709045,0.018263041973114,-0.0224728062748909,0.0020859092473983,0.0219838555669515,-0.6724081961910006,-0.0070626107561406,0.7398203519588904
15725.894449375,-0.9841766357421876,-0.0469970703125,-0.0876922607421875,15725.884509375,0.0202038550141571,-1.475090691512971,0.0386574784494154,0.0517289899289608,0.1046553775668144,0.4090149402618408,0.0207420587539672,-0.0219600833952426,0.0120073556900024,0.0210958857586676,-0.6721687756960697,-0.0055214574139119,0.7400767309007026
15725.904389375,-0.9774932861328124,-0.0275726318359375,-0.0905303955078125,15725.894449375,0.02118887324481,-1.474086468675497,0.0343128147460925,0.05302195250988,0.1191719993948936,0.5031230449676514,0.0056666731834411,-0.0096087306737899,0.0272579342126846,0.0198216371572323,-0.6718302888452072,-0.0036861902090617,0.7404306037294852
15725.914330375,-0.978179931640625,-0.0499267578125,-0.115142822265625,15725.904389375,0.0220967734235737,-1.473073362536218,0.0292559912792025,0.0434713251888752,0.0705515667796134,0.5969442129135132,0.0106263756752014,-0.0177452731877565,0.0098334625363349,0.0182559103746462,-0.6714937460420778,-0.0016414642268166,0.7407834379867209
15725.924270375,-0.9897308349609376,-0.0150146484375,-0.0662384033203125,15725.914330375,0.0237526856601116,-1.472949193734816,0.0231431490912897,0.1387405842542648,0.0121500473469495,0.7847521901130676,0.0174570679664611,-0.0044315736740827,0.0071344971656799,0.0165482858173565,-0.6714861829495581,0.0010260101547019,0.7408316114948967
15725.934210375,-0.991302490234375,-0.0297698974609375,-0.095184326171875,15725.924270375,0.0254780171813496,-1.472728712760158,0.0157930131500551,0.0343880802392959,0.0755468308925628,0.8401055932044983,0.0168911814689636,-0.0341344289481639,-0.0172445923089981,0.0144051080776144,-0.671448691611818,0.0041351773970696,0.7408995279765868
15725.944150375,-0.9920806884765624,-0.011077880859375,-0.0793304443359375,15725.934210375,0.0267564218491896,-1.471926688487504,0.0067614877657491,0.0707823112607002,0.0846838727593421,0.9924256205558776,0.0053628087043762,-0.008253239095211,0.0324679017066955,0.0114860198413525,-0.6712040546837111,0.007646077750711,0.741144158658643
15725.954091375,-0.965057373046875,0.0065460205078125,-0.053802490234375,15725.944150375,0.0282264660033842,-1.470917243522919,-0.0037860273725808,-0.0194096360355615,0.1315607875585556,1.110424876213074,0.0037066340446472,-0.0335559397935867,0.0045280456542968,0.0080650490444556,-0.6708790946339269,0.0117348698194454,0.7414300450341726
15725.964031375,-0.9542236328125,-0.0157623291015625,-0.0782318115234375,15725.954091375,0.0283201284632832,-1.46941999256278,-0.0155247885584357,-0.1700050085783005,0.1625227034091949,1.236818790435791,0.0026652812957763,-0.0266020707786083,0.021860122680664,0.0037326503767461,-0.6703661498209323,0.0157095745102359,0.7418547764851382
15725.973971375,-0.98095703125,0.0260162353515625,-0.0583648681640625,15725.964031375,0.0280446848652815,-1.46787181479714,-0.0291992146642233,-0.1730588525533676,0.1745441108942032,1.464079260826111,0.029226541519165,-0.0226490683853626,0.0488965958356857,-0.001448579345231,-0.669812177273927,0.0201882235791175,0.7422547086092454
15725.983912375,-0.9574432373046876,0.0376739501953125,-0.046417236328125,15725.973971375,0.0274387236966932,-1.46559318804374,-0.044864934440548,-0.2777511775493622,0.3069221377372742,1.658225536346436,0.039246916770935,-0.0606122463941574,0.0266716629266738,-0.0074962467817858,-0.6689484689336901,0.0251983585477025,0.7428436111458145
15725.993852375,-0.9684600830078124,0.082366943359375,-0.060638427734375,15725.983912375,0.0264483149572965,-1.460949460383688,-0.0632611657014416,-0.3065823018550873,0.7291877865791321,2.014235734939575,0.0110275745391845,-0.0372027829289436,0.0510419085621833,-0.014735499333946,-0.6671427658998533,0.0309442036419179,0.7441409177751594
15726.003792375,-1.021484375,0.087158203125,-0.171905517578125,15725.993852375,0.0256614643936863,-1.451185027206707,-0.085870435384053,-0.3472852408885956,1.044550657272339,2.385758399963379,0.031753659248352,-0.0480910167098045,0.0724693536758422,-0.0236014770965066,-0.6633247002459463,0.0380694471132894,0.7469899876629595
15726.013732375,-0.99420166015625,0.0489501953125,-0.129669189453125,15726.003792375,0.0247122144072342,-1.441701108627853,-0.1088195068087706,-0.4145524203777313,0.8853607177734375,2.0938880443573,0.0173529386520385,-0.0262379571795463,0.0673369914293289,-0.0327086999220258,-0.6595016418805884,0.0451597713687723,0.749632048961369
15726.02367279167,-0.9447021484375,0.0650177001953125,-0.16717529296875,15726.013732375,0.022946240348879,-1.432956240694258,-0.1281416084331556,-0.4347636997699738,0.8929986953735352,1.726203322410583,-0.0390904545783996,-0.0406330525875091,-0.0356280654668808,-0.0407619097232656,-0.6558961438783546,0.0506800616438174,0.7520439544479228
15726.03361279167,-0.90118408203125,0.1292877197265625,-0.1807098388671875,15726.02367279167,0.0211045893759853,-1.425336253081985,-0.1439465380262087,-0.3957933783531189,0.6790433526039124,1.348505973815918,-0.0149955153465271,-0.094499796628952,0.0137793570756912,-0.0475247038555291,-0.6526998798369127,0.054980097771195,0.7541229155434681
15726.04355279167,-0.8943328857421875,0.14862060546875,-0.16680908203125,15726.03361279167,0.0188437822777361,-1.420157850623962,-0.1570880980255791,-0.4425015151500702,0.4486240148544312,1.244890928268433,0.0317997336387634,-0.0914251506328582,-0.0189536809921264,-0.0533738649319532,-0.6504155846213464,0.0582700550945618,0.7554570234006385
15726.05349379167,-0.9467620849609376,0.1685943603515625,-0.1902008056640625,15726.04355279167,0.0160691033446812,-1.417323227759433,-0.1702827708174576,-0.4877230525016785,0.2048221677541733,1.261240243911743,0.0727689862251281,-0.0401733517646789,-0.0300495624542236,-0.0593520108605839,-0.6489585262986723,0.0614207892925148,0.7560143776231807
15726.06343379167,-0.9393463134765624,0.18505859375,-0.16595458984375,15726.05349379167,0.0131700264128159,-1.416760828069847,-0.1828900964248075,-0.4736413061618805,0.0412084609270095,1.138267993927002,0.0773467421531677,-0.0332516580820083,-0.0159408301115036,-0.0650803283190923,-0.6483289475651676,0.0643902464839121,0.755835949118583
15726.07337379167,-0.8944854736328125,0.204742431640625,-0.161407470703125,15726.06343379167,0.0101178533628364,-1.41694188446772,-0.1950952605946099,-0.4909236431121826,0.0421373732388019,1.241486787796021,0.0226790308952331,-0.0252656638622283,-0.0398598909378051,-0.0706791302913394,-0.6479459773018027,0.0671934789708807,0.7554174763263969
15726.08331379167,-0.866607666015625,0.3167572021484375,-0.2076568603515625,15726.07337379167,0.0075145401930387,-1.41702037789348,-0.2098072190167375,-0.4553691148757935,0.0375487469136714,1.573130130767822,0.0271832942962646,-0.0232127606868743,-0.0161429196596145,-0.0770786790673108,-0.6474202650046196,0.0709728237473881,0.7548965738843629
15726.09325479167,-0.863861083984375,0.31634521484375,-0.167388916015625,15726.08331379167,0.0058900750689106,-1.418361708795116,-0.2272571832245355,-0.4107281267642975,-0.1812557578086853,1.891656279563904,0.0685051083564758,-0.0205636918544769,-0.0134667158126831,-0.0841409429373701,-0.64726341938583,0.076057449741311,0.753780896748449
15726.10319479167,-0.91827392578125,0.327239990234375,-0.16839599609375,15726.09325479167,0.0050068239136622,-1.419649398477411,-0.2495950033132969,-0.4192342758178711,-0.0404059737920761,2.509037256240845,0.0913571715354919,0.0697456151247024,-0.0617506355047226,-0.0927913345227602,-0.6468667983138824,0.0830034475219327,0.7523718926876981
15726.11313479167,-0.936187744140625,0.3225860595703125,-0.1128387451171875,15726.10319479167,0.0050559261623282,-1.420416391239028,-0.2765438192477801,-0.4098314344882965,-0.1290304213762283,2.788322687149048,0.0872867703437805,0.0433127284049987,-0.0232673734426498,-0.1028748066547454,-0.6460309486718507,0.0917633287779914,0.75075972265045
15726.12307479167,-0.9209747314453124,0.28204345703125,-0.126861572265625,15726.11313479167,0.0044179071153197,-1.421928323902032,-0.3048488944914891,-0.5671592950820923,-0.1525234878063202,2.807092189788818,0.0250679850578308,0.0270909070968627,-0.0269159078598022,-0.1136252813286599,-0.64525130023187,0.1007362516891022,0.7487270592308294
15726.13301579167,-0.911895751953125,0.3007965087890625,-0.134979248046875,15726.12307479167,0.0022964002431596,-1.425119689009357,-0.3336512780693894,-0.6668826937675476,-0.3637310862541199,2.861922025680542,-0.0013428330421447,-0.0049090981483459,0.0243179202079772,-0.1249103786841211,-0.6448403394035167,0.1094175896553127,0.7460603954749769
15726.14295579167,-0.9478302001953124,0.3617095947265625,-0.1551971435546875,15726.13301579167,-0.0006406269539681,-1.429966773476934,-0.3623418053320856,-0.7034199237823486,-0.3705253303050995,2.686173677444458,0.0048373341560363,-0.0724215507507324,0.0043889433145523,-0.1362623024319795,-0.6448312332588066,0.117889916823696,0.7427834000228399
15726.15289579167,-0.9009857177734376,0.3936004638671875,-0.1398162841796875,15726.14295579167,-0.0040924521824361,-1.434421349844933,-0.3870707073138263,-0.598267138004303,-0.2682904601097107,2.158325433731079,0.0055252313613891,-0.0766810178756713,-0.0090845674276351,-0.1462670929748511,-0.6447159017875359,0.1249016977843321,0.7398288728423023
15726.16283679167,-0.87066650390625,0.4197998046875,-0.1103668212890625,15726.15289579167,-0.0068794207274974,-1.437673741904939,-0.4091471533332601,-0.5338961482048035,-0.169038712978363,2.261427402496338,-0.0384871959686279,-0.0361174941062927,-0.0334229320287704,-0.1551017145626556,-0.6442486505876471,0.1312406143547642,0.7373349898903857
15726.17277679167,-0.884246826171875,0.420379638671875,-0.1298370361328125,15726.16283679167,-0.008930873600886,-1.439895427029267,-0.4339994942981973,-0.4729222655296326,-0.1137935668230057,2.613383769989014,-0.0014566183090209,-0.026902437210083,-0.0213899612426757,-0.1647453193092316,-0.6431530178222928,0.1386775598749684,0.7348344726609792
15726.18271679167,-0.8143768310546875,0.406219482421875,-0.1152801513671875,15726.17277679167,-0.0092541769825721,-1.440789622273949,-0.4612134560546031,-0.2823805510997772,-0.0356423109769821,2.787622213363647,0.017289400100708,-0.0252354145050048,0.0057281404733657,-0.1747491430106616,-0.6414165817541538,0.1473952336946498,0.7323400900270393
15726.19265679167,-0.74713134765625,0.434539794921875,-0.1242523193359375,15726.18271679167,-0.0072775490615277,-1.440207976636722,-0.4905267570688854,-0.141746997833252,-0.0479527711868286,3.121266841888428,-0.0096725225448608,-0.0507109761238098,-0.0149741768836975,-0.1848572848550964,-0.6390589502769456,0.1574707884317187,0.7298180448491658
15726.20259779167,-0.7445220947265625,0.5367279052734375,-0.1470947265625,15726.19265679167,-0.0033440633377007,-1.439533416001186,-0.5218975912769827,-0.0004742946475744,-0.2060239017009735,3.128480911254883,0.045040488243103,-0.0923064947128295,-0.0018181353807449,-0.1950681940595077,-0.6365668748799304,0.1688592577838826,0.7267858035186003
15726.21253779167,-0.784332275390625,0.5921478271484375,-0.0632781982421875,15726.20259779167,0.0016970743240127,-1.438761839674298,-0.5514770599757554,0.0563431829214096,-0.1103652864694595,2.934091091156006,0.097206711769104,-0.089406132698059,-0.0121182203292846,-0.2042578840044447,-0.6342015907072532,0.1800098537411207,0.723646037991272
15726.22247779167,-0.9331207275390624,0.6071014404296875,-0.0162353515625,15726.21253779167,0.0061511007443052,-1.436427120598046,-0.5812637958055836,-0.1221626400947571,0.0715548172593116,3.116455316543579,0.0837137103080749,-0.0123527646064758,-0.0351306721568107,-0.2138329331798858,-0.6311049539586989,0.1907844176292249,0.7208212272555792
15726.23241879167,-0.9725494384765624,0.637359619140625,-0.00506591796875,15726.22247779167,0.0084157059717665,-1.434735746607265,-0.6128132505569769,-0.3525050282478333,0.0039003733545541,3.179377794265747,0.0261406302452087,0.0169766545295715,0.0476807504892349,-0.2246539158734775,-0.6277349296917528,0.2013170079345155,0.7176007336917093
15726.24235879167,-0.92047119140625,0.6406097412109375,0.0152130126953125,15726.23241879167,0.0085320933525239,-1.433993327619703,-0.6452460734435885,-0.5062245726585388,0.1952266544103622,3.330065727233887,-0.1416335105895996,0.0057063698768615,0.0927229970693588,-0.236329980723685,-0.6242346778983565,0.2113924450049768,0.7139975784546655
15726.25229879167,-0.8691253662109375,0.676605224609375,-0.04486083984375,15726.24235879167,0.007807882158137,-1.430848475619758,-0.680905161615683,-0.5853270888328552,0.4721730649471283,3.751476526260376,-0.2031427621841431,0.0078629255294799,0.1033193543553352,-0.2496274267101545,-0.6192685121143087,0.2218025729598615,0.7106308415425048
15726.26223879167,-0.7143096923828125,0.7458953857421875,-0.1585693359375,15726.25229879167,0.0076597514563817,-1.427168751993554,-0.7194029990593211,-0.4871629774570465,0.2383000999689102,3.816925048828125,-0.176017165184021,-0.0183260440826416,0.1228784322738647,-0.2637670073414577,-0.6136727339188144,0.2331059476239762,0.7067491138874963
15726.27217979167,-0.543487548828125,0.744232177734375,-0.1137542724609375,15726.26223879167,0.0110763777982979,-1.423676881083111,-0.7575899283902279,-0.1162680089473724,0.0812887400388717,3.975046634674072,-0.150479257106781,-0.0105674266815185,0.0616353899240493,-0.2766339360297926,-0.6084616128987996,0.2454564109555023,0.7021389665577782
15726.28211979167,-0.5540771484375,0.7086029052734375,-0.1107177734375,15726.27217979167,0.020327276082649,-1.415291152266917,-0.799457766777096,0.1040734201669693,0.2509901523590088,4.477344512939453,-0.0256257057189941,0.0289171338081359,-0.0506037473678588,-0.2896259093920835,-0.6017757329292994,0.2600789386411104,0.6973820486980203
15726.29205979167,-0.5407867431640625,0.6339874267578125,-0.1382904052734375,15726.28211979167,0.0313987742233332,-1.405667160901302,-0.8433093276210237,-0.0358077846467495,0.041116215288639,4.409051418304443,0.1124615073204041,-0.002615749835968,-0.0044425725936889,-0.3029820869879593,-0.5945973546745434,0.2754420087348854,0.6919447222467002
15726.30200079167,-0.5557403564453125,0.646087646484375,-0.1375579833984375,15726.29205979167,0.0410314040086232,-1.398978237580989,-0.884868262511744,-0.1103472635149956,-0.1429074108600616,4.026768684387207,0.0699880123138427,-0.0652287006378173,-0.0024243593215942,-0.3155959309130016,-0.5884322253281834,0.2897758152221832,0.6856943554365005
15726.31194079167,-0.5943450927734375,0.7199859619140625,-0.10369873046875,15726.30200079167,0.0479215139777656,-1.395022223440665,-0.9215961994392752,-0.3340485394001007,-0.1237266287207603,3.357218027114868,0.0544474124908447,-0.1625802516937256,-0.0325726270675659,-0.3269274611351742,-0.5833177064711054,0.3019780378405792,0.6794616479511981
15726.32188079167,-0.692535400390625,0.823638916015625,-0.1069793701171875,15726.31194079167,0.0496034120423538,-1.394703035353305,-0.9520383786112184,-0.5228602886199951,-0.1070347279310226,2.73971962928772,0.0153137445449829,-0.1685118675231934,-0.0359467267990112,-0.3370021329433568,-0.5793305891646146,0.3110857684050795,0.6738184377693855
15726.33182079167,-0.707916259765625,0.834136962890625,-0.003936767578125,15726.32188079167,0.0475220502067814,-1.397195450847561,-0.9773062696957115,-0.5964891910552979,-0.0178830530494451,2.272939682006836,-0.0434935688972473,-0.1090080142021179,-0.0070980712771415,-0.3458755193186928,-0.5762549665648816,0.3178946521306715,0.6687624890530169
15726.34176179167,-0.6291656494140625,0.9285888671875,0.0601959228515625,15726.33182079167,0.043188277160372,-1.39974183365312,-1.001078859946017,-0.7108861207962036,0.2207763940095901,2.435388803482056,-0.1610133051872253,-0.018414556980133,-0.0151628777384758,-0.3547992991648242,-0.5728954621425275,0.3235303433583408,0.6642562083123852
15726.35170179167,-0.566192626953125,1.020660400390625,0.0373992919921875,15726.34176179167,0.0371017362117121,-1.402409354513421,-1.028293467974472,-0.8267679810523987,0.2681589126586914,2.831279277801514,-0.1989374756813049,-0.0222824215888977,0.0825879126787185,-0.3652767540733911,-0.5686040267129231,0.3295604389406768,0.6592814842567651
15726.36164179167,-0.44940185546875,1.058822631835938,0.0158538818359375,15726.35170179167,0.0315453741526359,-1.404831834881667,-1.059610887506452,-0.7658369541168213,0.2082649618387222,3.288627862930298,-0.1466763913631439,0.0564234852790832,0.14101542532444,-0.3768964108029884,-0.5635063072265568,0.336845848856266,0.6534098696209617
15726.37158179167,-0.34307861328125,0.994171142578125,-0.049072265625,15726.36164179167,0.028280442854732,-1.40606892560192,-1.096057279648554,-0.7397446632385254,0.1131376475095749,3.937685012817383,-0.1152741312980652,0.1312482953071594,0.1123571470379829,-0.3896239342575168,-0.5574174924360313,0.3460222777420152,0.6463338748731484
15726.38152279167,-0.2877197265625,0.9523773193359376,-0.096038818359375,15726.37158179167,0.030327840123495,-1.40414195896436,-1.139355102731066,-0.4807210564613342,-0.0876961201429367,4.633414268493652,-0.0370151400566101,0.1504586935043335,0.0852233096957206,-0.4035118666381921,-0.5499940378280034,0.3580280433395294,0.6375740910612849
15726.39146279167,-0.29888916015625,0.9023590087890624,-0.09234619140625,15726.38152279167,0.041667077724217,-1.394706018174872,-1.186901841983359,-0.2790204286575317,-0.0726595818996429,4.905983924865723,0.0256640911102294,0.0669580698013305,0.0165392756462097,-0.4174874291171239,-0.5412009388294489,0.3722896398299312,0.6278584824608012
15726.40140279167,-0.405120849609375,1.043014526367188,-0.11273193359375,15726.39146279167,0.0613271801154277,-1.375531213717097,-1.234889394560172,-0.1128588914871216,0.2204809486865997,4.751399517059326,0.0356414020061492,0.0082654356956481,-0.0320827886462211,-0.4312586458850965,-0.5310724497463587,0.3866693124320776,0.6184373542583802
15726.41134379167,-0.3641204833984375,1.05963134765625,-0.1193084716796875,15726.40140279167,0.08641816382487,-1.349650645902255,-1.2770318958456,-0.1519490331411362,0.1464183032512665,3.77891206741333,-0.0163838267326355,-0.0548017621040344,-0.0288325473666191,-0.4432654957590316,-0.5213049931777122,0.3990957747472528,0.6103107572790494
15726.42128379167,-0.24090576171875,0.9283905029296876,-0.065521240234375,15726.41134379167,0.1063405906894213,-1.328319132580334,-1.30955639215312,-0.2771080136299133,0.3605883717536926,2.937949180603027,-0.154398113489151,0.0769439935684204,-0.0507172346115112,-0.4528736094844142,-0.5137101632363816,0.408038934145257,0.6037478955126381
15726.43122379167,-0.2160491943359375,0.990509033203125,-0.0769500732421875,15726.42128379167,0.1217029014838885,-1.308736212749169,-1.33694449839633,-0.3416995406150818,0.5413516163825989,2.610411882400513,-0.1403055787086487,0.0868503451347351,-0.0592749193310737,-0.4618015527402922,-0.5066779416172851,0.4144069458982308,0.5985680688879439
15726.44116379167,-0.148406982421875,1.024856567382812,-0.0456085205078125,15726.43122379167,0.1382097661474635,-1.287362396124224,-1.361982913355388,-0.3102928698062897,0.5175544023513794,2.479928493499756,-0.0418779104948043,-0.0498871803283691,-0.0075492225587368,-0.4701842702744028,-0.499940739961887,0.4198400216450369,0.5939025983944594
15726.45110479167,-0.15093994140625,0.9646759033203124,-0.04736328125,15726.44116379167,0.1636964948136784,-1.256804460743904,-1.387524449662819,-0.2005543857812881,0.617877721786499,2.759428024291992,-0.0427115708589553,0.0072564482688903,-0.020661361515522,-0.4785984928919399,-0.4927465049091481,0.4254852116135472,0.5891576880288057
15726.46104479167,-0.1199188232421875,0.9552764892578124,-0.1105499267578125,15726.45110479167,0.219456402273184,-1.195863636718949,-1.413903691805601,0.1767537444829941,0.519259512424469,2.772499084472656,-0.0030114948749542,0.0371389389038085,0.0116117000579834,-0.4867279269523757,-0.4842373440560513,0.4322554334219342,0.5846070244058545
15726.47098479167,0.006011962890625,0.8372955322265625,-0.0863037109375,15726.46104479167,0.3031715167184384,-1.109508127715878,-1.436314182395583,0.1983834058046341,0.1975709050893784,2.347888946533203,-0.0308766365051269,-0.0262950658798217,0.0123146772384643,-0.4930091422261129,-0.4765532475799569,0.439273011328682,0.5804120932226993
15726.48092579167,-0.0194091796875,0.856964111328125,-0.08074951171875,15726.47098479167,0.4045849506898678,-1.008148614687717,-1.456298898035433,0.0400590151548385,-0.0256789568811655,2.454548597335815,-0.0232843533158302,-0.0381760597229003,-0.04960797727108,-0.4984022629423488,-0.4702384491365184,0.4461882241690963,0.575662123545006
15726.49086579167,-0.08660888671875,0.983123779296875,-0.100799560546875,15726.48092579167,0.5417108223568968,-0.8735165686414408,-1.476532294856298,-0.1137718260288239,-0.3774338364601135,2.462209701538086,0.0781663730740547,-0.1582649946212769,-0.0258636437356472,-0.5038868947193053,-0.4646266838591051,0.4536232982621596,0.5696014953180737
15726.50080579167,-0.082733154296875,1.051101684570312,-0.0375518798828125,15726.49086579167,0.7162554243309044,-0.7049834815476439,-1.494164729660556,-0.2510428726673126,-0.6581161022186279,2.147434711456299,0.0302001871168613,-0.1401012539863586,-0.0224434100091457,-0.5084775967653787,-0.4607574860883858,0.4610627989279004,0.5626491384010217
15726.51074579167,-0.109619140625,1.0743408203125,0.0024871826171875,15726.50080579167,0.9339791714151106,-0.4935308352334833,-1.508330163612413,-0.3565663695335388,-0.4558658003807068,1.982117056846619,-0.0570361316204071,-0.0149259567260742,-0.0458246432244777,-0.5126994436325084,-0.4578774995557381,0.4675246582311738,0.5557950058735674
15726.52068679167,-0.064788818359375,1.141494750976562,-0.036956787109375,15726.51074579167,1.232330181146121,-0.198728643298468,-1.518073609535747,-0.2703585028648376,-0.1939566880464554,1.865488529205322,-0.072329431772232,0.0524911284446716,0.0141087807714939,-0.5172965637660045,-0.4545040674916787,0.4729221496431712,0.5497044036755393
15726.53062679167,0.024566650390625,1.114242553710938,-0.0568084716796875,15726.52068679167,1.543894006334905,0.1107543812807295,-1.52043409416728,-0.0514778234064579,-0.1541876047849655,1.35924756526947,-0.1151831746101379,0.0756086707115173,0.052518967539072,-0.5209836247240156,-0.4511764330806971,0.4773876943174193,0.5450842498635835
15726.54056679167,0.101715087890625,1.010833740234375,-0.0485382080078125,15726.53062679167,1.767957102523845,0.3330613232100613,-1.517209121518065,0.1549352705478668,-0.1372980922460556,1.107336401939392,-0.0822999775409698,0.1429301500320435,0.0136609077453613,-0.5231864561680827,-0.4482935101677493,0.4811671892235309,0.5420211915953025
15726.55050779167,0.108306884765625,0.9957122802734376,-0.0479583740234375,15726.54056679167,1.934861169329752,0.498492128964557,-1.511134114847105,0.1756051331758499,-0.1025504320859909,1.136115074157715,-0.0039400178939104,0.1160216927528381,-0.0044398866593837,-0.5249021910100418,-0.4453014635301131,0.484864001577012,0.539528552921005
15726.56044779167,0.04986572265625,1.023956298828125,-0.082611083984375,15726.55050779167,2.074171658027715,0.6361359135887877,-1.503853932439604,0.1063232570886612,-0.2057572454214096,1.112737059593201,0.0619745850563049,0.0130735635757446,0.00527024269104,-0.526703216704415,-0.4423567556656138,0.4885875422203355,0.5368300178685604
