loggingTime(txt),locationTimestamp_since1970(s),locationLatitude(WGS84),locationLongitude(WGS84),locationAltitude(m),locationSpeed(m/s),locationCourse(°),locationVerticalAccuracy(m),locationHorizontalAccuracy(m),locationFloor(Z),accelerometerTimestamp_sinceReboot(s),accelerometerAccelerationX(G),accelerometerAccelerationY(G),accelerometerAccelerationZ(G),motionTimestamp_sinceReboot(s),motionYaw(rad),motionRoll(rad),motionPitch(rad),motionRotationRateX(rad/s),motionRotationRateY(rad/s),motionRotationRateZ(rad/s),motionUserAccelerationX(G),motionUserAccelerationY(G),motionUserAccelerationZ(G),motionAttitudeReferenceFrame(txt),motionQuaternionX(R),motionQuaternionY(R),motionQuaternionZ(R),motionQuaternionW(R),motionGravityX(G),motionGravityY(G),motionGravityZ(G),motionMagneticFieldX(µT),motionMagneticFieldY(µT),motionMagneticFieldZ(µT),motionHeading(°),motionMagneticFieldCalibrationAccuracy(Z),activityTimestamp_sinceReboot(s),activity(txt),activityActivityConfidence(Z),activityActivityStartDate(txt),pedometerStartDate(txt),pedometerNumberofSteps(N),pedometerAverageActivePace(s/m),pedometerCurrentPace(s/m),pedometerCurrentCadence(steps/s),pedometerDistance(m),pedometerFloorAscended(N),pedometerFloorDescended(N),pedometerEndDate(txt),altimeterTimestamp_sinceReboot(s),altimeterReset(bool),altimeterRelativeAltitude(m),altimeterPressure(kPa),batteryState(N),batteryLevel(R)
2021-12-13 15:41:48.818 -0500,1639428103.44459,33.99229565802003,-81.03096501567497,71.44005,-1,-1,4.635624885559082,35,-9999,15879.46700466667,0.0136871337890625,0.03802490234375,-1.001708984375,15879.46203466667,-0.01468321752516723,0.01385214689622918,-0.0391394560217934,0.06009902060031891,0.03889692947268486,-0.01750536262989044,0.0006700055673718452,0.0005433633923530579,-0.008658945560455322,XArbitraryZVertical,-0.01951664381904985,0.007068164455399676,-0.00747548878739077,0.9997566242619722,0.01384109538048506,0.03912946209311485,-0.9991382956504822,0,0,0,-1,-1,15844.37450879167,unknown,2,2021-12-13 15:41:13.669 -0500,,,,,,,,,,661120906.7586521,0,-0.28,101.8661,1,0.71
2021-12-13 15:41:48.827 -0500,,,,,,,,,,15879.47694366667,0.01824951171875,0.02618408203125,-0.9993896484375,15879.47197466667,-0.01479308610071636,0.01426498518455251,-0.03863575830996761,0.03472335636615753,0.04308751598000526,0.008664587512612343,-0.0005667302757501602,-0.0006012693047523499,-0.002556920051574707,XArbitraryZVertical,-0.01926291211024767,0.007273777628655238,-0.007532678227806537,0.9997596594146305,0.01425385661423206,0.03862614557147026,-0.9991520643234253,0,0,0,-1,-1,,,,,,,,,,,,,,,,,,1,0.71
2021-12-13 15:41:48.829 -0500,,,,,,,,,,15879.48688366667,0.018798828125,0.029876708984375,-1.00213623046875,15879.48191366667,-0.01435779168233264,0.01470076986945533,-0.03849836984767568,-0.004372114315629005,0.03544903919100761,0.07104673981666565,0.003560157492756844,-0.01230480521917343,-0.0002385973930358887,XArbitraryZVertical,-0.01919422282614761,0.007486941895042874,-0.007318785398020451,0.9997609791735058,0.01468934770673513,0.03848886117339134,-0.9991510510444641,0,0,0,-1,-1,,,,,,,,,,,,,,,,,,1,0.71
2021-12-13 15:41:48.830 -0500,,,,,,,,,,15879.49682366667,0.0135650634765625,0.03680419921875,-1.002517700195312,15879.49185366667,-0.01359663770646528,0.01515764833968951,-0.03844799300615227,0.02018942125141621,0.05821743607521057,0.07865152508020401,0.003652953542768955,-0.008561842143535614,-0.002990007400512695,XArbitraryZVertical,-0.01917030439385072,0.007707854640865357,-0.00694249708657897,0.9997623613442724,0.01514586620032787,0.03843852132558823,-0.9991461634635925,0,0,0,-1,-1,,,,,,,,,,,,,,,,,,1,0.71
2021-12-13 15:41:48.831 -0500,,,,,,,,,,15879.50676366667,-0.021484375,0.0407562255859375,-1.005126953125,15879.50179366667,-0.01192170249543396,0.01600311227164351,-0.03797138341329708,0.06542348116636276,0.05733433365821838,0.506106436252594,-0.002425838261842728,-0.001158088445663452,-0.003366470336914062,XArbitraryZVertical,-0.0189359196085307,0.008113046446033834,-0.006111452577750134,0.999769094105218,0.01599089428782463,0.03796225786209106,-0.9991512298583984,0,0,0,-1,-1,,,,,,,,,,,,,,,,,,1,0.71
2021-12-13 15:41:48.832 -0500,,,,,,,,,,15879.51670266667,0.030029296875,0.0333251953125,-0.9954071044921875,15879.51173366667,-0.01075640487927085,0.0169713598112861,-0.03779312405948863,0.00463869096711278,0.1585732400417328,-0.02573093771934509,-0.03844281286001205,0.002972066402435303,-0.005984902381896973,XArbitraryZVertical,-0.01884885620750611,0.008585560254204944,-0.0055373594600273,0.9997700879006547,0.01695842668414116,0.03778412938117981,-0.9991419911384583,0,0,0,-1,-1,,,,,,,,,,,,,,,,,,1,0.71
2021-12-13 15:41:48.833 -0500,,,,,,,,,,15879.52664266667,0.0249176025390625,0.0242919921875,-0.99908447265625,15879.52167266667,-0.01036732961322618,0.0183529052794812,-0.03786027381326399,-0.03736522048711777,0.1288033574819565,0.07306168973445892,0.01169056631624699,-0.004526060074567795,0.003708004951477051,XArbitraryZVertical,-0.01888039789724455,0.009272674079520662,-0.005356191324453953,0.9997643432228445,0.01833872310817242,0.03785122931003571,-0.9991151094436646,0,0,0,-1,-1,,,,,,,,,,,,,,,,,,1,0.71
2021-12-13 15:41:48.834 -0500,,,,,,,,,,15879.53658266667,0.023223876953125,0.0330963134765625,-1.00396728515625,15879.53161266667,-0.009498638898742941,0.01965842904345405,-0.03860704739427015,-0.1053141802549362,0.1332126408815384,0.09356070309877396,0.005275079980492592,-0.01430549100041389,-2.270936965942383e-05,XArbitraryZVertical,-0.01925450286485134,0.009918782612708161,-0.004937909034222188,0.9997531908826225,0.01964251510798931,0.03859745711088181,-0.9990617632865906,0,0,0,-1,-1,,,,,,,,,,,,,,,,,,1,0.71
2021-12-13 15:41:48.842 -0500,,,,,,,,,,15879.54652266667,0.029876708984375,0.044952392578125,-1.0225830078125,15879.54155266667,-0.008458677340110982,0.02049654530228682,-0.0393492970803816,-0.03125592321157455,0.01200712844729424,0.09973710775375366,0.002744622528553009,-0.006242856383323669,-0.004951238632202148,XArbitraryZVertical,-0.01962883736126808,0.01032921967766473,-0.004429898611845434,0.9997440965460106,0.02047924511134624,0.03933914378285408,-0.9990160465240479,0,0,0,-1,-1,,,,,,,,,,,,,,,,,,1,0.71
2021-12-13 15:41:48.852 -0500,,,,,,,,,,15879.55646166667,0.0121307373046875,0.0487518310546875,-1.006378173828125,15879.55149166667,-0.007938002005210238,0.0200204121486965,-0.03913160690911627,0.06085962057113647,-0.07806190848350525,-0.009232786484062672,0.009872952476143837,0.00583074614405632,-0.02354878187179565,XArbitraryZVertical,-0.01952369875682896,0.010085691801901,-0.004163872523715619,0.9997498467071789,0.02000374905765057,0.03912162035703659,-0.9990342259407043,0,0,0,-1,-1,,,,,,,,,,,,,,,,,,1,0.71
2021-12-13 15:41:48.862 -0500,,,,,,,,,,15879.56640166667,0.0123443603515625,0.0366058349609375,-0.9954986572265625,15879.56143166667,-0.008510708495298615,0.01952731946262468,-0.03840460096733053,0.07536452263593674,-0.006822354160249233,-0.09172606468200684,-0.007380949333310127,0.01035664603114128,-0.007306039333343506,XArbitraryZVertical,-0.01915849278620969,0.009843320076444529,-0.004441822834781232,0.9997580954463907,0.01951168105006218,0.03839516267180443,-0.9990721344947815,0,0,0,-1,-1,,,,,,,,,,,,,,,,,,1,0.71
2021-12-13 15:41:48.872 -0500,,,,,,,,,,15879.57634166667,0.01873779296875,0.031890869140625,-0.99639892578125,15879.57137166667,-0.009502002930562466,0.01975238793151205,-0.03765871072493662,0.07348646223545074,0.06120629981160164,-0.09786971658468246,-0.007392749190330505,-0.001044005155563354,0.003597438335418701,XArbitraryZVertical,-0.01878019921339107,0.009963619451866589,-0.004935855923496331,0.9997618188252985,0.01973710022866726,0.03764981031417847,-0.9990960359573364,0,0,0,-1,-1,,,,,,,,,,,,,,,,,,1,0.71
2021-12-13 15:41:48.882 -0500,,,,,,,,,,15879.58628066667,0.0215301513671875,0.033172607421875,-1.001327514648438,15879.58131166667,-0.01048574042818282,0.02054557749838717,-0.03695877715767279,0.07143183052539825,0.1003350615501404,-0.09648913145065308,-0.001792319118976593,-0.005059525370597839,0.002707302570343018,XArbitraryZVertical,-0.01842325860249277,0.01036758648556626,-0.00543149230083312,0.9997618123299341,0.02053010277450085,0.03695036470890045,-0.9991061687469482,0,0,0,-1,-1,,,,,,,,,,,,,,,,,,1,0.71
2021-12-13 15:41:48.892 -0500,,,,,,,,,,15879.59622066667,0.0282135009765625,0.0321044921875,-1.011215209960938,15879.59125066667,-0.01141980634619986,0.02133413419319554,-0.0361992707622073,0.08842679858207703,0.06478475779294968,-0.08887368440628052,0.0002116020768880844,-0.003018788993358612,-0.002210021018981934,XArbitraryZVertical,-0.01803642495826333,0.01076827821534067,-0.005901664413300299,0.999761981418897,0.02131853997707367,0.03619136661291122,-0.9991174340248108,0,0,0,-1,-1,,,,,,,,,,,,,,,,,,1,0.71
2021-12-13 15:41:48.902 -0500,,,,,,,,,,15879.60616066667,0.0279998779296875,0.030517578125,-1.010269165039062,15879.60119066667,-0.01230450504686307,0.02152342749431622,-0.03526107017894527,0.10366540402174,-0.02316028065979481,-0.08404085040092468,0.006705105304718018,-0.003149297088384628,-0.01206827163696289,XArbitraryZVertical,-0.01756207114422205,0.0108680852675489,-0.006340619333666486,0.9997665601946774,0.02150838822126389,0.03525376319885254,-0.9991469383239746,0,0,0,-1,-1,,,,,,,,,,,,,,,,,,1,0.71
2021-12-13 15:41:48.912 -0500,,,,,,,,,,15879.61610066667,0.0242156982421875,0.0301971435546875,-1.002639770507812,15879.61113066667,-0.0131578658070113,0.02102660966343767,-0.03418751035053639,0.1135220304131508,-0.06207858398556709,-0.08119019865989685,0.00698709674179554,-0.003663301467895508,-0.01107442378997803,XArbitraryZVertical,-0.01702245461819693,0.01062379448355538,-0.006757257048111366,0.9997757795914808,0.02101277373731136,0.03418084979057312,-0.9991947412490845,0,0,0,-1,-1,,,,,,,,,,,,,,,,,,1,0.71
2021-12-13 15:41:48.922 -0500,,,,,,,,,,15879.62603966667,0.0167694091796875,0.0279083251953125,-0.99737548828125,15879.62107066667,-0.01397536240715447,0.02055803077358301,-0.03314958699874476,0.100467748939991,-0.02104300074279308,-0.07716856151819229,0.003670400008559227,-0.002946402877569199,-0.003400325775146484,XArbitraryZVertical,-0.01650094049211591,0.01039297914778844,-0.007156653423250265,0.9997841677148426,0.02054528892040253,0.03314351662993431,-0.9992393851280212,0,0,0,-1,-1,,,,,,,,,,,,,,,,,,1,0.71
2021-12-13 15:41:48.932 -0500,,,,,,,,,,15879.63597966667,0.0212249755859375,0.0258636474609375,-0.9976959228515625,15879.63100966667,-0.01475676248681255,0.02060777173461597,-0.0322671029874931,0.08033850789070129,0.02978010103106499,-0.07525800913572311,-0.003826187923550606,-0.004353206604719162,0.001891791820526123,XArbitraryZVertical,-0.01605554175276011,0.01042110891423709,-0.007543185905993868,0.9997883539163975,0.02059558592736721,0.03226150572299957,-0.9992672204971313,0,0,0,-1,-1,,,,,,,,,,,,,,,,,,1,0.71
2021-12-13 15:41:48.942 -0500,,,,,,,,,,15879.64591966667,0.0226287841796875,0.0238189697265625,-1.000900268554688,15879.64094966667,-0.01549885235273333,0.02102963180116132,-0.03170851873625107,0.03836017102003098,0.05628041923046112,-0.07385905086994171,0.0002074558287858963,-0.005839582532644272,0.001580417156219482,XArbitraryZVertical,-0.01577077263672123,0.01063583401852676,-0.007914636495318985,0.9997876692353832,0.02101751230657101,0.03170320391654968,-0.999276340007782,0,0,0,-1,-1,,,,,,,,,,,,,,,,,,1,0.71
2021-12-13 15:41:48.952 -0500,,,,,,,,,,15879.65585966667,0.024200439453125,0.0243988037109375,-1.002944946289062,15879.65088966667,-0.01620656374085769,0.02154475043412135,-0.03159630601050831,-0.01391581818461418,0.04984462261199951,-0.06842060387134552,0.001096444204449654,-0.007772106677293777,-0.001631319522857666,XArbitraryZVertical,-0.01570878263944234,0.01089847178563456,-0.008271879611121611,0.9997829896250975,0.0215323306620121,0.03159105032682419,-0.9992688894271851,0,0,0,-1,-1,,,,,,,,,,,,,,,,,,1,0.71
2021-12-13 15:41:48.962 -0500,,,,,,,,,,15879.66579866667,0.026214599609375,0.0244293212890625,-1.006027221679688,15879.66082866667,-0.0168613069154624,0.02178044408848741,-0.03199085596342382,-0.06311558932065964,-0.001219360157847404,-0.06247856467962265,0.002432851120829582,-0.007586624473333359,-0.003693640232086182,XArbitraryZVertical,-0.01590143253579214,0.01102306366653198,-0.008603152257229688,0.9997757537887504,0.02176757901906967,0.03198539838194847,-0.9992512464523315,0,0,0,-1,-1,,,,,,,,,,,,,,,,,,1,0.71
2021-12-13 15:41:48.971 -0500,,,,,,,,,,15879.67573866667,0.02581787109375,0.02716064453125,-1.00555419921875,15879.67076866667,-0.01747943693925069,0.02152030923338883,-0.03279001112487701,-0.09374433755874634,-0.04706930741667747,-0.05866292119026184,0.004707511514425278,-0.008354838937520981,-0.006796181201934814,XArbitraryZVertical,-0.01629867107010933,0.01090136135054436,-0.008914321646453022,0.9997679850876477,0.02150708064436913,0.03278413414955139,-0.9992310404777527,0,0,0,-1,-1,,,,,,,,,,,,,,,,,,1,0.71
2021-12-13 15:41:48.981 -0500,,,,,,,,,,15879.68567866667,0.0238037109375,0.03033447265625,-1.001235961914062,15879.68070866667,-0.01804996269342158,0.02093746067277735,-0.03379088593477345,-0.1036254689097404,-0.06106129288673401,-0.05703652650117874,0.00489388220012188,-0.006623838096857071,-0.006344079971313477,XArbitraryZVertical,-0.01679856209399332,0.01061908230742807,-0.009199931462715484,0.9997601554971774,0.02092397958040237,0.03378445655107498,-0.9992100596427917,0,0,0,-1,-1,,,,,,,,,,,,,,,,,,1,0.71
2021-12-13 15:41:48.991 -0500,,,,,,,,,,15879.69561866667,0.0186614990234375,0.0299224853515625,-0.99945068359375,15879.69064866667,-0.01859387185603525,0.02048353620585574,-0.03483742714866083,-0.1086939945816994,-0.02372746728360653,-0.05748114362359047,0.003334028646349907,-0.004495933651924133,-0.002052366733551025,XArbitraryZVertical,-0.01732096732600239,0.01040151472239413,-0.009473282928661489,0.9997509729521451,0.02046967670321465,0.03483038023114204,-0.9991835951805115,0,0,0,-1,-1,,,,,,,,,,,,,,,,,,1,0.71
2021-12-13 15:41:49.001 -0500,,,,,,,,,,15879.70555766667,0.02215576171875,0.031280517578125,-0.9993438720703125,15879.70058766667,-0.0191002331394005,0.02044775852430321,-0.03593888675548037,-0.1132080554962158,0.01815233752131462,-0.0493750125169754,-0.00177164189517498,-0.006008695811033249,-0.0003052949905395508,XArbitraryZVertical,-0.01786909772422613,0.0103931739724927,-0.009731626590786965,0.9997389449735489,0.02043313160538673,0.03593115136027336,-0.9991453289985657,0,0,0,-1,-1,,,,,,,,,,,,,,,,,,1,0.71
2021-12-13 15:41:49.011 -0500,,,,,,,,,,15879.71549766667,0.0229034423828125,0.0324249267578125,-1.007278442382812,15879.71052766667,-0.01957435197637687,0.02065506028414275,-0.03703979107991764,-0.1070564165711403,0.02175213396549225,-0.04970284923911095,0.001516329124569893,-0.005750831216573715,-0.0002429485321044922,XArbitraryZVertical,-0.01841590611093301,0.01050631575147782,-0.009976061009344433,0.9997254197613333,0.02063942514359951,0.03703132271766663,-0.999100923538208,0,0,0,-1,-1,,,,,,,,,,,,,,,,,,1,0.71
2021-12-13 15:41:49.021 -0500,,,,,,,,,,15879.72543766667,0.0267486572265625,0.035614013671875,-1.01251220703125,15879.72046766667,-0.0199961802393741,0.0205587263200879,-0.0378624129364962,-0.05817196518182755,-0.04389212280511856,-0.04267876222729683,0.002360891550779343,-0.005428466945886612,-0.008206307888031006,XArbitraryZVertical,-0.01882537791687454,0.0104660782734562,-0.01019018015105564,0.999716046876379,0.02054254524409771,0.03785336762666702,-0.9990721344947815,0,0,0,-1,-1,,,,,,,,,,,,,,,,,,1,0.71
2021-12-13 15:41:49.031 -0500,,,,,,,,,,15879.73537666667,0.022247314453125,0.0344085693359375,-1.00457763671875,15879.73040766667,-0.02035576994525466,0.01984256135670397,-0.0381722572406389,-0.01282179169356823,-0.08399173617362976,-0.03679370880126953,0.006921844556927681,-0.002549000084400177,-0.01343739032745361,XArbitraryZVertical,-0.01898208615917908,0.01011302882459767,-0.01036468909285437,0.999714955746793,0.01982680521905422,0.03816298767924309,-0.9990748167037964,0,0,0,-1,-1,,,,,,,,,,,,,,,,,,1,0.71
2021-12-13 15:41:49.041 -0500,,,,,,,,,,15879.74531666667,0.01678466796875,0.0323486328125,-0.998809814453125,15879.74034666667,-0.0206880895753678,0.01921374884941644,-0.03823517477505891,-0.006548449397087097,-0.03597468137741089,-0.03368659690022469,0.003048781305551529,-0.003817319869995117,-0.005492925643920898,XArbitraryZVertical,-0.01901516507033152,0.009802185500518028,-0.01052512901083831,0.9997157689377011,0.01919852383434772,0.03822585940361023,-0.9990847110748291,0,0,0,-1,-1,,,,,,,,,,,,,,,,,,1,0.71
2021-12-13 15:41:49.051 -0500,,,,,,,,,,15879.75525666667,0.017303466796875,0.0325775146484375,-0.9980621337890625,15879.75028666667,-0.02098785201386486,0.01920781970457232,-0.03832012986900434,-0.01208649389445782,0.03294972702860832,-0.0283789187669754,-0.002407876774668694,-0.005962148308753967,0.0002717375755310059,XArbitraryZVertical,-0.01905619389017601,0.009802510061169632,-0.01067531103634729,0.9997133391305195,0.01919253915548325,0.03831075131893158,-0.999081552028656,0,0,0,-1,-1,,,,,,,,,,,,,,,,,,1,0.71
2021-12-13 15:41:49.061 -0500,,,,,,,,,,15879.76519666667,0.0214691162109375,0.0371856689453125,-1.004867553710938,15879.76022666667,-0.0212440894932041,0.01976524706707978,-0.03839902219170532,-0.0002862927503883839,0.06723739206790924,-0.02260119095444679,-0.002445932477712631,-0.005812101066112518,0.00100553035736084,XArbitraryZVertical,-0.01909136051533291,0.01008399567627148,-0.01080908489408138,0.9997084509233261,0.01974939182400703,0.03838958591222763,-0.9990676641464233,0,0,0,-1,-1,,,,,,,,,,,,,,,,,,1,0.71
2021-12-13 15:41:49.071 -0500,,,,,,,,,,15879.77513566667,0.026763916015625,0.03680419921875,-1.01177978515625,15879.77016566667,-0.0214465720713094,0.02030946174813058,-0.03814534771395345,0.05487895756959915,0.02769198082387447,-0.01668098196387291,0.001175817102193832,-0.0009504556655883789,-0.005801081657409668,XArbitraryZVertical,-0.01896056931960109,0.01035662052637469,-0.01091422903601653,0.9997070239484235,0.02029329165816307,0.03813609853386879,-0.9990664720535278,0,0,0,-1,-1,,,,,,,,,,,,,,,,,,1,0.71
2021-12-13 15:41:49.081 -0500,,,,,,,,,,15879.78507566667,0.0229339599609375,0.032989501953125,-1.005828857421875,15879.78010566667,-0.02160557608225962,0.02033078865250451,-0.03734651977827776,0.09702827036380768,-0.009621835313737392,-0.01154427789151669,0.006448695436120033,-0.00053367018699646,-0.01268357038497925,XArbitraryZVertical,-0.01856032924477657,0.01036455130796228,-0.01098993233552943,0.9997136061371069,0.02031521312892437,0.03733783960342407,-0.999096155166626,0,0,0,-1,-1,,,,,,,,,,,,,,,,,,1,0.71
2021-12-13 15:41:49.091 -0500,,,,,,,,,,15879.79501566667,0.01885986328125,0.0316314697265625,-0.998687744140625,15879.79004566667,-0.02172705110915383,0.02031044663349006,-0.03633468664246097,0.1011412590742111,0.007821403443813324,-0.01000417117029428,0.002638306468725204,-0.00333721935749054,-0.006694972515106201,XArbitraryZVertical,-0.01805403759005429,0.01035011122497047,-0.01104542931346015,0.9997223404134357,0.0202956460416317,0.03632669150829315,-0.999133825302124,0,0,0,-1,-1,,,,,,,,,,,,,,,,,,1,0.71
2021-12-13 15:41:49.101 -0500,,,,,,,,,,15879.80495566667,0.0211639404296875,0.0296478271484375,-1.000152587890625,15879.79998566667,-0.02182801686781847,0.02058825929122174,-0.03534996906294698,0.09831058233976364,0.0436268076300621,-0.006432872265577316,-0.001714086160063744,-0.003711163997650146,0.0004757046699523926,XArbitraryZVertical,-0.0175597473322023,0.01048460812997639,-0.01109343429590635,0.9997292642086254,0.0205739438533783,0.03534260764718056,-0.9991634488105774,0,0,0,-1,-1,,,,,,,,,,,,,,,,,,1,0.71
2021-12-13 15:41:49.111 -0500,,,,,,,,,,15879.81489466667,0.0227203369140625,0.029052734375,-1.00555419921875,15879.80992466667,-0.0218915711495014,0.02107549476360543,-0.03435962425088489,0.09910367429256439,0.04919844120740891,-0.002350379712879658,0.0001024361699819565,-0.00470506027340889,-0.0009647607803344727,XArbitraryZVertical,-0.01706166154001144,0.01072338914818344,-0.01112435743686033,0.9997350553015097,0.02106149680912495,0.0343528650701046,-0.9991878271102905,0,0,0,-1,-1,,,,,,,,,,,,,,,,,,1,0.71
2021-12-13 15:41:49.121 -0500,,,,,,,,,,15879.82483466667,0.0242919921875,0.0293121337890625,-1.004364013671875,15879.81986466667,-0.02192180248324218,0.0214323296134433,-0.03336748304410007,0.09826318174600601,0.02116334065794945,-0.001250227680429816,0.001301568001508713,-0.004308585077524185,-0.006340324878692627,XArbitraryZVertical,-0.01656357066913212,0.01089667161767629,-0.01113729107402692,0.9997413423787656,0.02141875959932804,0.0333612933754921,-0.9992138147354126,0,0,0,-1,-1,,,,,,,,,,,,,,,,,,1,0.71
2021-12-13 15:41:49.131 -0500,,,,,,,,,,15879.83477466667,0.0244598388671875,0.02593994140625,-1.004669189453125,15879.82980466667,-0.02193563022472984,0.02143719724458937,-0.03245281567288114,0.08204080164432526,-0.01427194662392139,0.002681662794202566,0.002867715433239937,-0.003135014325380325,-0.005120217800140381,XArbitraryZVertical,-0.01610624846746382,0.01089428450157341,-0.01113942447178271,0.9997488691434899,0.02142426930367947,0.03244711831212044,-0.9992437958717346,0,0,0,-1,-1,,,,,,,,,,,,,,,,,,1,0.71
2021-12-13 15:41:49.141 -0500,,,,,,,,,,15879.84471366667,0.02239990234375,0.02484130859375,-1.0006103515625,15879.83974466667,-0.02190756585245412,0.02120881377997698,-0.03183365465484508,0.03887442499399185,-0.02856726199388504,0.006185850128531456,0.003263352438807487,-0.005888361483812332,-0.005400598049163818,XArbitraryZVertical,-0.01579816533424369,0.01077655687130743,-0.01112032789890641,0.9997553500802219,0.02119647897779942,0.03182827681303024,-0.9992685914039612,0,0,0,-1,-1,,,,,,,,,,,,,,,,,,1,0.71
2021-12-13 15:41:49.150 -0500,,,,,,,,,,15879.85465366667,0.0206451416015625,0.02593994140625,-0.99847412109375,15879.84968366667,-0.021869935723969,0.02096664071445324,-0.03167773747347957,-0.00786298606544733,-0.01810097321867943,0.0004227696917951107,0.001445310190320015,-0.006831157952547073,-0.001331746578216553,XArbitraryZVertical,-0.01572177375763385,0.01065436436185085,-0.01109880192569386,0.9997580067467173,0.02095458656549454,0.03167244046926498,-0.9992786049842834,0,0,0,-1,-1,,,,,,,,,,,,,,,,,,1,0.71
2021-12-13 15:41:49.160 -0500,,,,,,,,,,15879.86459366667,0.021331787109375,0.0244293212890625,-0.997955322265625,15879.85962366667,-0.02184325753418743,0.02086925782852266,-0.03199398561089107,-0.0548400804400444,-0.0008543413132429123,0.002185249701142311,-0.0002119299024343491,-0.006048612296581268,0.0007964968681335449,XArbitraryZVertical,-0.01588054216291441,0.01060717550169339,-0.01108632284353013,0.9997561218568025,0.02085706405341625,0.03198852762579918,-0.9992706179618835,0,0,0,-1,-1,,,,,,,,,,,,,,,,,,1,0.71
2021-12-13 15:41:49.170 -0500,,,,,,,,,,15879.87453366667,0.020111083984375,0.0276031494140625,-1.00140380859375,15879.86956366667,-0.02182332657457479,0.02099456435789909,-0.03270819056618127,-0.08851016312837601,0.02559457533061504,-0.0008683307096362114,0.0003499854356050491,-0.008273065090179443,0.001289546489715576,XArbitraryZVertical,-0.01623696771184967,0.01067348922648514,-0.01108103835999153,0.9997498534376033,0.02098179422318935,0.03270236030220985,-0.9992448687553406,0,0,0,-1,-1,,,,,,,,,,,,,,,,,,1,0.71
2021-12-13 15:41:49.180 -0500,,,,,,,,,,15879.88447266667,0.0240478515625,0.0296173095703125,-1.004959106445312,15879.87950266667,-0.02181244672244495,0.02128199842695684,-0.03367169950816203,-0.1025982871651649,0.03047774918377399,-0.002840934321284294,-0.001157253980636597,-0.006062213331460953,-0.002196967601776123,XArbitraryZVertical,-0.01671706870919835,0.01082225097915096,-0.01108297248472523,0.9997402144863933,0.02126832865178585,0.03366533666849136,-0.9992068409919739,0,0,0,-1,-1,,,,,,,,,,,,,,,,,,1,0.71
2021-12-13 15:41:49.190 -0500,,,,,,,,,,15879.89441266667,0.025787353515625,0.0299224853515625,-1.006195068359375,15879.88944266667,-0.02182690008321592,0.02137601793536955,-0.034659151548998,-0.09790819138288498,-0.0117659792304039,-0.002291524084284902,0.002686290070414543,-0.005034927278757095,-0.005787968635559082,XArbitraryZVertical,-0.01721006584337426,0.0108746657865835,-0.0110961664062683,0.9997311743722368,0.02136155404150486,0.0346522144973278,-0.9991711378097534,0,0,0,-1,-1,,,,,,,,,,,,,,,,,,1,0.71
2021-12-13 15:41:49.200 -0500,,,,,,,,,,15879.90435266667,0.02374267578125,0.0305328369140625,-1.006622314453125,15879.89938266667,-0.02183308428197477,0.02102106569330472,-0.03556352205820904,-0.08942762017250061,-0.05281247943639755,-0.002415360882878304,0.004781117662787437,-0.00563357025384903,-0.007048130035400391,XArbitraryZVertical,-0.01766406656147206,0.01070214228689804,-0.01110086820988495,0.9997250545197361,0.02100622653961182,0.03555602580308914,-0.9991468787193298,0,0,0,-1,-1,,,,,,,,,,,,,,,,,,1,0.71
2021-12-13 15:41:49.210 -0500,,,,,,,,,,15879.91429266667,0.02001953125,0.0312957763671875,-1.00128173828125,15879.90932266667,-0.02185575884463994,0.02047708121290882,-0.03642721524378124,-0.08510983735322952,-0.0503549799323082,-0.006434070877730846,0.003280600532889366,-0.005886346101760864,-0.007495224475860596,XArbitraryZVertical,-0.01809869692649461,0.01043506370824482,-0.01111173352145349,0.9997199383226136,0.02046206593513489,0.03641916066408157,-0.9991270899772644,0,0,0,-1,-1,,,,,,,,,,,,,,,,,,1,0.71
2021-12-13 15:41:49.230 -0500,,,,,,,,,,15879.92423166667,0.02130126953125,0.0325469970703125,-0.9985198974609375,15879.91926166667,-0.02186320944959198,0.02013455133117147,-0.03726744709846928,-0.08674582093954086,-0.01954380609095097,0.0002299570478498936,-9.968876838684082e-05,-0.005963075906038284,-0.002178609371185303,XArbitraryZVertical,-0.01852055964773409,0.01026842696300684,-0.01111650113695302,0.9997139363268761,0.02011921070516109,0.0372588224709034,-0.9991030693054199,0,0,0,-1,-1,,,,,,,,,,,,,,,,,,1,0.71
2021-12-13 15:41:49.244 -0500,,,,,,,,,,15879.93417166667,0.020721435546875,0.035919189453125,-1.006011962890625,15879.92920166667,-0.02186233462654185,0.0200891779606995,-0.03802743500583266,-0.06891302764415741,0.001230945810675621,-0.0006831076461821795,0.001227958127856255,-0.005471300333738327,0.0005555152893066406,XArbitraryZVertical,-0.01890070114019831,0.01024981915361179,-0.01111938095881391,0.9997070199832176,0.02007330395281315,0.03801827132701874,-0.9990754127502441,0,0,0,-1,-1,,,,,,,,,,,,,,,,,,1,0.71
2021-12-13 15:41:49.246 -0500,,,,,,,,,,15879.94411166667,0.023590087890625,0.036102294921875,-1.0108642578125,15879.93914166667,-0.0218573876447761,0.01995776440674805,-0.03847292651745881,-0.02063444070518017,-0.02754690498113632,-0.001129453536123037,0.0007797572761774063,-0.002544272691011429,-0.006950974464416504,XArbitraryZVertical,-0.01912413724401453,0.01018647563390432,-0.01111784143058286,0.9997034751649093,0.01994167268276215,0.03846343606710434,-0.9990609884262085,0,0,0,-1,-1,,,,,,,,,,,,,,,,,,1,0.71
2021-12-13 15:41:49.250 -0500,,,,,,,,,,15879.95405166667,0.0187225341796875,0.03497314453125,-1.004119873046875,15879.94908166667,-0.02186104828247543,0.0196307454078437,-0.0384464903252176,0.01700321584939957,-0.0346149355173111,0.0004221042618155479,0.003975102677941322,-0.002334751188755035,-0.0117957592010498,XArbitraryZVertical,-0.01911272356782838,0.01002290828488995,-0.01111641794812479,0.9997052935072342,0.01961497962474823,0.03843702003359795,-0.9990684986114502,0,0,0,-1,-1,,,,,,,,,,,,,,,,,,1,0.71
2021-12-13 15:41:49.260 -0500,,,,,,,,,,15879.96399066667,0.017974853515625,0.0342864990234375,-0.9971466064453125,15879.95902066667,-0.02185505384690059,0.01948383225268454,-0.03821571672250892,0.02730432152748108,0.007703492417931557,0.002183252479881048,-0.0007458478212356567,-0.003233302384614944,-0.005039632320404053,XArbitraryZVertical,-0.01899821667896166,0.009948177144911221,-0.01111091814522261,0.9997082703366427,0.01946837455034256,0.03820641711354256,-0.9990801811218262,0,0,0,-1,-1,,,,,,,,,,,,,,,,,,1,0.71
2021-12-13 15:41:49.270 -0500,,,,,,,,,,15879.97393066667,0.018890380859375,0.0333709716796875,-1.001556396484375,15879.96896066667,-0.02184121727088093,0.0198341901566056,-0.03791857788921369,0.02945855259895325,0.05848970636725426,4.793005064129829e-05,-0.001843787729740143,-0.003623019903898239,0.001938045024871826,XArbitraryZVertical,-0.01884781195897907,0.01012157859887955,-0.01110588681298058,0.9997095084416683,0.01981863379478455,0.03790949285030365,-0.9990846514701843,0,0,0,-1,-1,,,,,,,,,,,,,,,,,,1,0.71
2021-12-13 15:41:49.280 -0500,,,,,,,,,,15879.98387066667,0.0221099853515625,0.033660888671875,-1.008651733398438,15879.97890066667,-0.02181465571535466,0.02047532436668217,-0.03750492160963365,0.05381982028484344,0.06038960441946983,0.004623506683856249,-0.001569122076034546,-0.004125185310840607,-0.002469062805175781,XArbitraryZVertical,-0.01863762270443343,0.0104395873959124,-0.01109657815951354,0.9997101803303126,0.02045949548482895,0.03749613091349602,-0.9990873336791992,0,0,0,-1,-1,,,,,,,,,,,,,,,,,,1,0.71
2021-12-13 15:41:49.289 -0500,,,,,,,,,,15879.99380966667,0.0251007080078125,0.033843994140625,-1.006011962890625,15879.98883966667,-0.02179559179265847,0.02090027579089418,-0.03679915346898069,0.08420435339212418,0.02111810073256493,0.0009539374150335789,0.001225372776389122,-0.003129985183477402,-0.009546995162963867,XArbitraryZVertical,-0.0182825818718827,0.0106480471776698,-0.01108739314209079,0.9997146651611747,0.02088460512459278,0.03679084777832031,-0.9991047382354736,0,0,0,-1,-1,,,,,,,,,,,,,,,,,,1,0.71
2021-12-13 15:41:49.300 -0500,,,,,,,,,,15880.00374966667,0.02398681640625,0.0321502685546875,-1.004241943359375,15879.99877966667,-0.02179360540764177,0.02093337586962897,-0.03587681397543124,0.09827463328838348,-0.009956028312444687,0.002016139216721058,0.004182320088148117,-0.002025153487920761,-0.006874382495880127,XArbitraryZVertical,-0.01782136567023675,0.01065963711260138,-0.01108196748191083,0.9997230060279869,0.02091837674379349,0.03586911782622337,-0.9991375207901001,0,0,0,-1,-1,,,,,,,,,,,,,,661120909.2904991,0,-0.3599999,101.8666,1,0.71
2021-12-13 15:41:49.309 -0500,,,,,,,,,,15880.01368966667,0.022247314453125,0.0296173095703125,-1.001373291015625,15880.00871966667,-0.02179160720454574,0.02082492049756216,-0.03487917255073194,0.1013109013438225,-0.008522981777787209,0.003424152266234159,0.003176057711243629,-0.002721861004829407,-0.005066812038421631,XArbitraryZVertical,-0.01732329253903029,0.01060006620542261,-0.01107490719326814,0.9997323350110888,0.02081074938178062,0.03487209975719452,-0.9991750717163086,0,0,0,-1,-1,,,,,,,,,,,,,,,,,,1,0.71
2021-12-13 15:41:49.320 -0500,,,,,,,,,,15880.02362966667,0.0209197998046875,0.0301361083984375,-0.9984283447265625,15880.01865966667,-0.02179388909158533,0.02086528310945057,-0.03390758396914841,0.09522131830453873,0.02064741961658001,0.001298417337238789,0.001395529136061668,-0.004283808171749115,-0.002165615558624268,XArbitraryZVertical,-0.01683738676196058,0.01061505521205052,-0.01107142012144366,0.9997406352782872,0.02085177600383759,0.03390108793973923,-0.9992076754570007,0,0,0,-1,-1,,,,,,,,,,,,,,,,,,1,0.71
2021-12-13 15:41:49.330 -0500,,,,,,,,,,15880.03356866667,0.021270751953125,0.0280303955078125,-1.00091552734375,15880.02859866667,-0.02178154088579328,0.0211786658529985,-0.03299525308387483,0.08401899784803391,0.03843876719474792,0.003548122476786375,-0.0002457629889249802,-0.002853184938430786,0.0008032321929931641,XArbitraryZVertical,-0.01637966836276839,0.01076671569640436,-0.01106313939632378,0.9997467108476001,0.02116555534303188,0.0329892672598362,-0.9992315769195557,0,0,0,-1,-1,,,,,,,,,,,,,,,,,,1,0.71
2021-12-13 15:41:49.340 -0500,,,,,,,,,,15880.04350866667,0.0240020751953125,0.026885986328125,-1.004531860351562,15880.03853866667,-0.02176189327144073,0.02153227116186881,-0.03226987900792299,0.0622846782207489,0.03108018822968006,0.002858896274119616,-0.0002486556768417358,-0.004233915358781815,-0.001667797565460205,XArbitraryZVertical,-0.01601522248511572,0.01093943051764948,-0.01105237423229674,0.9997508710645152,0.02151939831674099,0.03226427733898163,-0.999247670173645,0,0,0,-1,-1,,,,,,,,,,,,,,,,,,1,0.71
2021-12-13 15:41:49.349 -0500,,,,,,,,,,15880.05344866667,0.0236663818359375,0.0247955322265625,-1.002609252929688,15880.04847866667,-0.02174944170225553,0.02166596552822969,-0.03185107721553729,0.02111486904323101,-0.001117795705795288,0.0002880143001675606,0.002348786219954491,-0.004959732294082642,-0.005273640155792236,XArbitraryZVertical,-0.01580520426504922,0.01100392229567139,-0.01104499041881641,0.9997534700254932,0.02165328152477741,0.03184569254517555,-0.9992582201957703,0,0,0,-1,-1,,,,,,,,,,,,,,,,,,1,0.71
2021-12-13 15:41:49.359 -0500,,,,,,,,,,15880.06338866667,0.02288818359375,0.0258636474609375,-1.001785278320312,15880.05841866667,-0.02175257655741583,0.02149744124778519,-0.03186043116723497,-0.0240536741912365,-0.02976968139410019,-0.001064871670678258,0.00218149833381176,-0.007059536874294281,-0.003347694873809814,XArbitraryZVertical,-0.01581079365368924,0.01091975574161082,-0.01104527512300074,0.9997542987107979,0.02148487605154514,0.03185504302382469,-0.9992615580558777,0,0,0,-1,-1,,,,,,,,,,,,,,,,,,1,0.71
2021-12-13 15:41:49.369 -0500,,,,,,,,,,15880.07332766667,0.022735595703125,0.026458740234375,-0.9999237060546875,15880.06835766667,-0.02177118158579426,0.02119011440846998,-0.03231433738671519,-0.06403331458568573,-0.03044861927628517,-0.002965436782687902,0.001710709184408188,-0.00644509494304657,-0.002531707286834717,XArbitraryZVertical,-0.01603928774672522,0.01076870777865257,-0.01105450944542339,0.9997522571722117,0.02117746695876122,0.03230871260166168,-0.9992535710334778,0,0,0,-1,-1,,,,,,,,,,,,,,,,,,1,0.71
2021-12-13 15:41:49.379 -0500,,,,,,,,,,15880.08326766667,0.02020263671875,0.029083251953125,-1.001724243164062,15880.07829766667,-0.02178243419559405,0.02098122111298767,-0.03306958036145066,-0.08743051439523697,-0.009632820263504982,-0.003195533994585276,0.001767376437783241,-0.006604842841625214,-0.0006904006004333496,XArbitraryZVertical,-0.01641791107369314,0.01066842451060948,-0.01106235264175858,0.9997470850308212,0.02096821181476116,0.03306355327367783,-0.9992332458496094,0,0,0,-1,-1,,,,,,,,,,,,,,,,,,1,0.71
2021-12-13 15:41:49.389 -0500,,,,,,,,,,15880.09320766667,0.0209503173828125,0.0294036865234375,-1.000228881835938,15880.08823766667,-0.0217805231119469,0.0210082567811493,-0.03398627679270177,-0.09446259588003159,0.01306590065360069,-0.001199760939925909,-0.0007919520139694214,-0.004896510392427444,-0.00252223014831543,XArbitraryZVertical,-0.01687600439236741,0.01068683326912557,-0.01106634939082946,0.99973919141335,0.02099458128213882,0.03397973626852036,-0.9992020130157471,0,0,0,-1,-1,,,,,,,,,,,,,,,,,,1,0.71
2021-12-13 15:41:49.399 -0500,,,,,,,,,,15880.10314666667,0.0228424072265625,0.0313873291015625,-1.005081176757812,15880.09817766667,-0.02177689378518775,0.02113017944595268,-0.03494250089931519,-0.0967947244644165,0.009035738185048103,-0.002234398853033781,-0.0001653991639614105,-0.005531731992959976,-0.001062393188476562,XArbitraryZVertical,-0.01735333498245416,0.01075286493220285,-0.0110705235683162,0.9997303401970249,0.02111570909619331,0.03493539243936539,-0.9991664886474609,0,0,0,-1,-1,,,,,,,,,,,,,,,,,,1,0.71
2021-12-13 15:41:49.409 -0500,,,,,,,,,,15880.11308666667,0.0243072509765625,0.0328369140625,-1.006332397460938,15880.10811666667,-0.02178133622705491,0.0210824202248892,-0.03584004808767022,-0.08685793727636337,-0.02138834446668625,-0.0017568941693753,0.001775080338120461,-0.004445072263479233,-0.005945444107055664,XArbitraryZVertical,-0.0178022283073319,0.01073383298822384,-0.01107697290321325,0.9997225740686355,0.02106732130050659,0.03583237528800964,-0.9991357326507568,0,0,0,-1,-1,,,,,,,,,,,,,,,,,,1,0.71
2021-12-13 15:41:49.419 -0500,,,,,,,,,,15880.12302666667,0.021820068359375,0.0331268310546875,-1.005035400390625,15880.11805666667,-0.02176980008732563,0.0207330031909409,-0.03664143167557385,-0.07601567357778549,-0.04576319456100464,-0.001456223195418715,0.003589639440178871,-0.003796350210905075,-0.007218360900878906,XArbitraryZVertical,-0.01820480687559773,0.01056335597795559,-0.0110721705230053,0.9997171302006752,0.02071760222315788,0.03663323447108269,-0.9991139769554138,0,0,0,-1,-1,,,,,,,,,,,,,,,,,,1,0.71
2021-12-13 15:41:49.429 -0500,,,,,,,,,,15880.13296666667,0.0216064453125,0.0344696044921875,-1.002899169921875,15880.12799666667,-0.02177914376449663,0.02028144061186294,-0.03732290301655254,-0.06165138632059097,-0.04245151951909065,-0.0005234512500464916,0.001554135233163834,-0.004187434911727905,-0.005937337875366211,XArbitraryZVertical,-0.01854789819715675,0.01034136888973301,-0.01107611617649306,0.9997131128024374,0.02026592753827572,0.03731423988938332,-0.9990980625152588,0,0,0,-1,-1,,,,,,,,,,,,,,,,,,1,0.71
2021-12-13 15:41:49.439 -0500,,,,,,,,,,15880.14290566667,0.0189056396484375,0.034637451171875,-1.001922607421875,15880.13793566667,-0.02179193729853992,0.0199589207759473,-0.03785753391967098,-0.04609852284193039,-0.02480088733136654,-0.001044631702825427,0.001663142815232277,-0.003378916531801224,-0.003814697265625,XArbitraryZVertical,-0.01881685740116224,0.01018313488936149,-0.01108213146643281,0.9997097078545085,0.01994329504668713,0.03784849122166634,-0.99908447265625,0,0,0,-1,-1,,,,,,,,,,,,,,,,,,1,0.71
2021-12-13 15:41:49.449 -0500,,,,,,,,,,15880.15284566667,0.019622802734375,0.0354766845703125,-1.00384521484375,15880.14787566667,-0.02179165103997145,0.01982996643194599,-0.03821012176316613,-0.0294692125171423,-0.006246844306588173,-0.001582590164616704,-0.0009085610508918762,-0.003563396632671356,-0.002848982810974121,XArbitraryZVertical,-0.01899381840216044,0.01012056187268589,-0.01108248715906314,0.9997068983748144,0.01981419324874878,0.03820082545280457,-0.9990736246109009,0,0,0,-1,-1,,,,,,,,,,,,,,,,,,1,0.71
2021-12-13 15:41:49.459 -0500,,,,,,,,,,15880.16278566667,0.01873779296875,0.0371856689453125,-1.00537109375,15880.15781566667,-0.02178776594409477,0.01981849456929263,-0.03831580612747697,0.003333742031827569,-0.0002616569399833679,0.001644095871597528,-0.000179855152964592,-0.002829775214195251,-0.004775404930114746,XArbitraryZVertical,-0.01904672822671842,0.0101153560598835,-0.01108094853706696,0.9997059767149752,0.01980265229940414,0.03830642998218536,-0.9990698099136353,0,0,0,-1,-1,,,,,,,,,,,,,,,,,,1,0.71
2021-12-13 15:41:49.469 -0500,,,,,,,,,,15880.17272429167,0.0196533203125,0.034698486328125,-1.004531860351562,15880.16775566667,-0.02177973339655523,0.01986198839849306,-0.03813221979955771,0.02983698807656765,0.01002620160579681,0.001678450033068657,-0.001108458265662193,-0.0009373389184474945,-0.006295144557952881,XArbitraryZVertical,-0.01895476140290272,0.01013603817911608,-0.01107645543247739,0.9997075612545643,0.01984624564647675,0.03812297806143761,-0.9990759491920471,0,0,0,-1,-1,,,,,,,,,,,,,,,,,,1,0.71
2021-12-13 15:41:49.479 -0500,,,,,,,,,,15880.18266329167,0.02020263671875,0.0345611572265625,-1.0010986328125,15880.17769329167,-0.02177652244142567,0.02005317602359142,-0.03769978889548846,0.05202831327915192,0.02894982509315014,5.31231053173542e-05,-0.0003842711448669434,-0.002992399036884308,-0.005443334579467773,XArbitraryZVertical,-0.01873756490425295,0.0102292606806487,-0.01107453922401444,0.999710761121583,0.02003758400678635,0.03769085928797722,-0.9990885257720947,0,0,0,-1,-1,,,,,,,,,,,,,,,,,,1,0.71
2021-12-13 15:41:49.489 -0500,,,,,,,,,,15880.19260329167,0.020843505859375,0.0335845947265625,-1.00360107421875,15880.18763329167,-0.02178313451321328,0.02044850566561179,-0.0371102679699955,0.06276378035545349,0.04510762542486191,0.00122890854254365,-0.000230373814702034,-0.002540621906518936,-0.001996040344238281,XArbitraryZVertical,-0.01844066390808841,0.01042377653915983,-0.01107859463223511,0.9997142532500259,0.02043300308287144,0.03710174933075905,-0.9991025924682617,0,0,0,-1,-1,,,,,,,,,,,,,,,,,,1,0.71
2021-12-13 15:41:49.498 -0500,,,,,,,,,,15880.20254329167,0.0228271484375,0.034027099609375,-1.00518798828125,15880.19757329167,-0.02178338508601191,0.02088536424363777,-0.0363896560848101,0.07821091264486313,0.03970406949520111,0.002046498935669661,-2.652406692504883e-05,-0.002797059714794159,-0.004481017589569092,XArbitraryZVertical,-0.01807803661343004,0.01063829072346799,-0.01107905756611773,0.9997186552618874,0.0208700206130743,0.03638162463903427,-0.9991199970245361,0,0,0,-1,-1,,,,,,,,,,,,,,,,,,1,0.71
2021-12-13 15:41:49.508 -0500,,,,,,,,,,15880.21248229167,0.0228118896484375,0.03118896484375,-1.006011962890625,15880.20751329167,-0.02175890215677359,0.02115153282946445,-0.03556352910042592,0.08716472238302231,0.0115713682025671,0.002373801544308662,0.001690559089183807,-0.001528959721326828,-0.006043851375579834,XArbitraryZVertical,-0.01766374476446029,0.01076670246249316,-0.01106493934337157,0.99972479346704,0.0211365818977356,0.03555603325366974,-0.9991441369056702,0,0,0,-1,-1,,,,,,,,,,,,,,,,,,1,0.71
2021-12-13 15:41:49.518 -0500,,,,,,,,,,15880.22242229167,0.022430419921875,0.029876708984375,-1.003082275390625,15880.21745229167,-0.02175259485282366,0.02117068858488072,-0.03466740686971551,0.09210675209760666,-0.008973321877419949,0.001291492953896523,0.001655494794249535,-0.003471523523330688,-0.006836771965026855,XArbitraryZVertical,-0.01721573037106925,0.01077143245256275,-0.01105729881090137,0.9997327037777392,0.02115638740360737,0.0346604622900486,-0.9991751909255981,0,0,0,-1,-1,,,,,,,,,,,,,,,,,,1,0.71
2021-12-13 15:41:49.529 -0500,,,,,,,,,,15880.23236229167,0.022003173828125,0.028839111328125,-1.002059936523438,15880.22739229167,-0.02175375630853482,0.021094495227802,-0.03376246123118856,0.09209423512220383,-0.002853644080460072,0.000939689576625824,0.001349503174424171,-0.003879364579916,-0.003874540328979492,XArbitraryZVertical,-0.01676379158689359,0.01072851836117251,-0.01105253763351669,0.9997407922575571,0.02108090929687023,0.03375604748725891,-0.9992077350616455,0,0,0,-1,-1,,,,,,,,,,,,,,,,,,1,0.71
2021-12-13 15:41:49.538 -0500,,,,,,,,,,15880.24230229167,0.021392822265625,0.028167724609375,-0.9998016357421875,15880.23733229167,-0.021747699845293,0.02114997237705922,-0.0329027699020617,0.0797978863120079,0.01689129695296288,0.00296182744204998,0.0008662175387144089,-0.004057746380567551,-0.002824723720550537,XArbitraryZVertical,-0.01633377931382173,0.01075160103681185,-0.01104550781676533,0.9997477955127895,0.02113694883882999,0.03289683535695076,-0.999235212802887,0,0,0,-1,-1,,,,,,,,,,,,,,,,,,1,0.71
2021-12-13 15:41:49.548 -0500,,,,,,,,,,15880.25224129167,0.023193359375,0.02581787109375,-0.9994049072265625,15880.24727129167,-0.02174223265715561,0.02136020558705261,-0.03223560149631073,0.0533769354224205,0.02508298121392727,0.002428130246698856,4.532933235168457e-05,-0.004062321037054062,-0.0005491375923156738,XArbitraryZVertical,-0.01599914561717167,0.01085307850479931,-0.0110409886349953,0.9997521826282632,0.02134748548269272,0.03223001956939697,-0.9992524981498718,0,0,0,-1,-1,,,,,,,,,,,,,,,,,,1,0.71
2021-12-13 15:41:49.558 -0500,,,,,,,,,,15880.26218129167,0.02484130859375,0.0273284912109375,-1.002899169921875,15880.25721129167,-0.02173982804727693,0.02157153601736478,-0.03190592328484675,0.01296586357057095,0.01674036495387554,-0.0006243851967155933,0.001634467393159866,-0.006082665175199509,-0.0001463890075683594,XArbitraryZVertical,-0.01583319325994776,0.01095693538892071,-0.01103972837215171,0.9997536994626931,0.02155888453125954,0.03190051019191742,-0.9992585182189941,0,0,0,-1,-1,,,,,,,,,,,,,,,,,,1,0.71
2021-12-13 15:41:49.568 -0500,,,,,,,,,,15880.27212129167,0.0236663818359375,0.0256500244140625,-1.002670288085938,15880.26715129167,-0.02173932277005357,0.02161333313260995,-0.03198853792113111,-0.02958745695650578,-0.008473912253975868,-5.420250818133354e-05,0.003240706399083138,-0.004654619842767715,-0.003644168376922607,XArbitraryZVertical,-0.01587426280894894,0.01097826672944258,-0.01104024597607609,0.9997527943575401,0.02160059474408627,0.03198308125138283,-0.9992549419403076,0,0,0,-1,-1,,,,,,,,,,,,,,,,,,1,0.71
2021-12-13 15:41:49.578 -0500,,,,,,,,,,15880.28206129167,0.022796630859375,0.026885986328125,-1.001571655273438,15880.27709129167,-0.0217502345042061,0.02143548724414952,-0.03244479265334191,-0.0610220804810524,-0.0260518416762352,-0.0009490244556218386,0.002243809401988983,-0.006789103150367737,-0.003426194190979004,XArbitraryZVertical,-0.01610325618550136,0.01089189301694197,-0.0110466930652418,0.9997500361611437,0.02142256498336792,0.03243910148739815,-0.9992440938949585,0,0,0,-1,-1,,,,,,,,,,,,,,,,,,1,0.71
2021-12-13 15:41:49.588 -0500,,,,,,,,,,15880.29200029167,0.02276611328125,0.0286407470703125,-1.002792358398438,15880.28703029167,-0.02176172987560754,0.02117214185625966,-0.03316912093541238,-0.08336173743009567,-0.02613276615738869,-0.003808859968557954,0.001637708395719528,-0.006277076900005341,-0.002345681190490723,XArbitraryZVertical,-0.01646672514502668,0.01076422407017671,-0.01105408874992307,0.9997452907155802,0.02115891501307487,0.03316304087638855,-0.9992259740829468,0,0,0,-1,-1,,,,,,,,,,,,,,,,,,1,0.71
2021-12-13 15:41:49.598 -0500,,,,,,,,,,15880.30194029167,0.0223236083984375,0.030242919921875,-1.001449584960938,15880.29697029167,-0.02178056549277737,0.02099215880267145,-0.03402416787364869,-0.08910351246595383,-0.01007816661149263,-0.002812038641422987,0.001787636429071426,-0.00537688285112381,-0.003591299057006836,XArbitraryZVertical,-0.01689503393932797,0.01067898965071576,-0.01106643006184731,0.9997389512532382,0.02097846753895283,0.03401760384440422,-0.9992010593414307,0,0,0,-1,-1,,,,,,,,,,,,,,,,,,1,0.71
2021-12-13 15:41:49.608 -0500,,,,,,,,,,15880.31188029167,0.021728515625,0.0296173095703125,-1.002227783203125,15880.30691029167,-0.02179554353907782,0.02095561528583959,-0.03491553582057561,-0.08905025571584702,0.00164932943880558,-0.002637601457536221,0.001382289454340935,-0.004665546119213104,-0.002278506755828857,XArbitraryZVertical,-0.01734072337664182,0.0106656241559791,-0.01107819301152656,0.9997313719318432,0.02094130963087082,0.03490844368934631,-0.9991710782051086,0,0,0,-1,-1,,,,,,,,,,,,,,,,,,1,0.71
2021-12-13 15:41:49.618 -0500,,,,,,,,,,15880.32181929167,0.0227203369140625,0.031494140625,-1.003952026367188,15880.31685029167,-0.02180278019764454,0.0209478182241853,-0.03577693421053944,-0.08644407987594604,-0.00575665570795536,-0.001747306901961565,0.0007956232875585556,-0.006152022629976273,-0.00308692455291748,XArbitraryZVertical,-0.0177713108979305,0.01066640340763495,-0.01108616939982484,0.9997237526757765,0.0209328830242157,0.03576930239796638,-0.9991407990455627,0,0,0,-1,-1,,,,,,,,,,,,,,,,,,1,0.71
2021-12-13 15:41:49.628 -0500,,,,,,,,,,15880.33175929167,0.0242462158203125,0.033935546875,-1.006698608398438,15880.32678929167,-0.02179404963635613,0.02079686023047385,-0.03657891301464676,-0.07820665836334229,-0.02612720802426338,-0.002110695466399193,0.001938879489898682,-0.005076643079519272,-0.0048370361328125,XArbitraryZVertical,-0.01817307436047008,0.01059516164169301,-0.011084554436177,0.9997172285538239,0.02078144997358322,0.03657075762748718,-0.999114990234375,0,0,0,-1,-1,,,,,,,,,,,,,,,,,,1,0.71
2021-12-13 15:41:49.638 -0500,,,,,,,,,,15880.34169929167,0.0216064453125,0.0333251953125,-1.006271362304688,15880.33672929167,-0.02180053439718533,0.02046440309778096,-0.03723722607467642,-0.05660762637853622,-0.04078657925128937,-0.001204954227432609,0.003797419369220734,-0.003293100744485855,-0.007601082324981689,XArbitraryZVertical,-0.01850394666990628,0.01043256338197594,-0.01108807545978375,0.9997128623422509,0.02044878900051117,0.03722862154245377,-0.9990975260734558,0,0,0,-1,-1,,,,,,,,,,,,,,,,,,1,0.71
2021-12-13 15:41:49.648 -0500,,,,,,,,,,15880.35163929167,0.01971435546875,0.033966064453125,-1.001083374023438,15880.34666929167,-0.0218097174131155,0.02005133929425827,-0.03767549193205554,-0.03692580014467239,-0.03797780722379684,-0.001436915248632431,0.001570669934153557,-0.004341408610343933,-0.007181882858276367,XArbitraryZVertical,-0.01872525997496395,0.0102285232458648,-0.01109099523526594,0.9997108338117687,0.02003576792776585,0.03766657784581184,-0.9990894794464111,0,0,0,-1,-1,,,,,,,,,,,,,,,,,,1,0.71
2021-12-13 15:41:49.658 -0500,,,,,,,,,,15880.36157829167,0.019439697265625,0.03375244140625,-0.9996185302734375,15880.35660929167,-0.02181640633445166,0.01982569921936833,-0.03792250934632467,-0.01762347109615803,-0.007547997869551182,-0.0008222577162086964,-9.579956531524658e-05,-0.003947380930185318,-0.001998722553253174,XArbitraryZVertical,-0.01884995091974118,0.01011712225700491,-0.01109342470497407,0.9997095905789909,0.01981014758348465,0.03791341930627823,-0.9990846514701843,0,0,0,-1,-1,,,,,,,,,,,,,,,,,,1,0.71
2021-12-13 15:41:49.667 -0500,,,,,,,,,,15880.37151829167,0.0195159912109375,0.035186767578125,-1.004104614257812,15880.36654829167,-0.02181963026388645,0.01990116085184911,-0.03800079111297918,0.0004644524306058884,0.01904989220201969,0.0006876210682094097,-0.0004457905888557434,-0.00423923134803772,-0.0005383491516113281,XArbitraryZVertical,-0.0188886464040674,0.01015529245861039,-0.01109612916932778,0.9997084012042008,0.01988548040390015,0.03799164667725563,-0.9990801811218262,0,0,0,-1,-1,,,,,,,,,,,,,,,,,,1,0.71
2021-12-13 15:41:49.677 -0500,,,,,,,,,,15880.38145829167,0.0223236083984375,0.0357513427734375,-1.006118774414062,15880.37648829167,-0.02181571037008828,0.02012614699725812,-0.03783283615236162,0.03169667348265648,0.01945975236594677,-1.998059451580048e-05,-0.0005944054573774338,-0.002637073397636414,-0.005022525787353516,XArbitraryZVertical,-0.01880346453848258,0.01026681570934915,-0.0110954668842365,0.9997088920152575,0.02011038735508919,0.03782381117343903,-0.9990820288658142,0,0,0,-1,-1,,,,,,,,,,,,,,,,,,1,0.71
2021-12-13 15:41:49.687 -0500,,,,,,,,,,15880.39139829167,0.0209808349609375,0.0350341796875,-1.003952026367188,15880.38642829167,-0.02180973102136829,0.0203140593745785,-0.03738606848923792,0.05448667705059052,0.01666596345603466,0.003835211973637342,0.00202513299882412,-0.001626044511795044,-0.007023751735687256,XArbitraryZVertical,-0.01857913179300475,0.01035829491612382,-0.01109202148204025,0.9997122431430858,0.02029846794903278,0.03737736120820045,-0.9990950226783752,0,0,0,-1,-1,,,,,,,,,,,,,,,,,,1,0.71
2021-12-13 15:41:49.697 -0500,,,,,,,,,,15880.40133729167,0.020843505859375,0.0338134765625,-1.002456665039062,15880.39636729167,-0.02180431708033851,0.0205085475190382,-0.03675222450367455,0.06743603199720383,0.02195473201572895,0.002560622524470091,0.0004875659942626953,-0.001709800213575363,-0.004837453365325928,XArbitraryZVertical,-0.01826124995216952,0.01045206737000838,-0.01108793780560738,0.9997170980797866,0.02049326151609421,0.03674395009875298,-0.9991145730018616,0,0,0,-1,-1,,,,,,,,,,,,,,,,,,1,0.71
2021-12-13 15:41:49.707 -0500,,,,,,,,,,15880.41127729167,0.0227203369140625,0.032928466796875,-1.00201416015625,15880.40630729167,-0.02180383843941531,0.02078400282948669,-0.03603978691271222,0.07331681996583939,0.02781208790838718,0.0004380829632282257,7.448717951774597e-05,-0.002218533307313919,-0.00332188606262207,XArbitraryZVertical,-0.01790360362012548,0.0105859355391906,-0.01108658234452388,0.9997222535861482,0.02076901122927666,0.03603198379278183,-0.9991347789764404,0,0,0,-1,-1,,,,,,,,,,,,,,,,,,1,0.71
2021-12-13 15:41:49.717 -0500,,,,,,,,,,15880.42121729167,0.02337646484375,0.03125,-1.003204345703125,15880.41624729167,-0.02179236896879043,0.02104062985092572,-0.0352825165500768,0.07704604417085648,0.01974617503583431,0.001859678421169519,0.001694347709417343,-0.002346757799386978,-0.002857744693756104,XArbitraryZVertical,-0.01752371159545328,0.01071005795323069,-0.01107923856379019,0.9997276537393334,0.02102598361670971,0.03527519851922989,-0.9991564154624939,0,0,0,-1,-1,,,,,,,,,,,,,,,,,,1,0.71
2021-12-13 15:41:49.746 -0500,,,,,,,,,,15880.43115729167,0.0231170654296875,0.0312957763671875,-1.00421142578125,15880.42618729167,-0.02179084054902742,0.0211562880408867,-0.0344923292192023,0.08386799693107605,0.00323910266160965,0.002699906006455421,0.002234330400824547,-0.003235515207052231,-0.004022777080535889,XArbitraryZVertical,-0.01712808999038846,0.01076362686964336,-0.01107538441604512,0.9997339943108113,0.02114212699234486,0.03448548913002014,-0.9991815686225891,0,0,0,-1,-1,,,,,,,,,,,,,,,,,,1,0.71
2021-12-13 15:41:49.750 -0500,,,,,,,,,,15880.44109629167,0.0221099853515625,0.0288848876953125,-1.002548217773438,15880.43612629167,-0.0217901510002907,0.02115463946752931,-0.03367037433667098,0.08158992975950241,-0.002425441518425941,0.0009898901917040348,0.001975985243916512,-0.002368263900279999,-0.005001842975616455,XArbitraryZVertical,-0.0167172304707879,0.01075839354866755,-0.01107075504247655,0.9997411261475203,0.02114107273519039,0.03366401419043541,-0.9992095828056335,0,0,0,-1,-1,,,,,,,,,,,,,,,,,,1,0.71
2021-12-13 15:41:49.753 -0500,,,,,,,,,,15880.45103629167,0.02197265625,0.0290069580078125,-1.0001220703125,15880.44606629167,-0.02178890319403756,0.02117616950241678,-0.03290355873666225,0.07075192779302597,0.006005128845572472,0.0006298311054706573,0.000946851447224617,-0.004012767225503922,-0.003313541412353516,XArbitraryZVertical,-0.01633380719435634,0.01076503703164334,-0.01106632235394942,0.9997474192175022,0.02116312645375729,0.03289762139320374,-0.9992346167564392,0,0,0,-1,-1,,,,,,,,,,,,,,,,,,1,0.71
2021-12-13 15:41:49.757 -0500,,,,,,,,,,15880.46097629167,0.0223236083984375,0.0262451171875,-1.001571655273438,15880.45600629167,-0.02178572397394024,0.02128396395363431,-0.0323049749037552,0.04894090443849564,0.01273626834154129,0.004536421969532967,0.0007013939321041107,-0.003292430192232132,-0.0008701682090759277,XArbitraryZVertical,-0.01603400953871497,0.01081568684871555,-0.01106248195824215,0.9997517921176197,0.02127125300467014,0.03229935467243195,-0.9992518424987793,0,0,0,-1,-1,,,,,,,,,,,,,,,,,,1,0.71
2021-12-13 15:41:49.767 -0500,,,,,,,,,,15880.47091529167,0.0227813720703125,0.0256195068359375,-1.00048828125,15880.46594629167,-0.02177672868957245,0.02142106392373123,-0.03198153674954046,0.01539200264960527,0.01112771965563297,0.0002055889926850796,0.0009151287376880646,-0.005730994045734406,-0.002312302589416504,XArbitraryZVertical,-0.01587162186531553,0.0108824160021564,-0.01105738210008672,0.9997536278344006,0.02140847221016884,0.03197608515620232,-0.999259352684021,0,0,0,-1,-1,,,,,,,,,,,,,,,,,,1,0.71
2021-12-13 15:41:49.777 -0500,,,,,,,,,,15880.48085529167,0.0229644775390625,0.02679443359375,-1.002944946289062,15880.47588529167,-0.0217718947213368,0.02147693315684301,-0.03203141586252706,-0.02527500130236149,-0.001717505976557732,0.0007496727630496025,0.001317098736763,-0.006406456232070923,-0.001231729984283447,XArbitraryZVertical,-0.01589627284066026,0.01091057252310194,-0.01105567248823793,0.999752948226163,0.0214642658829689,0.03202593699097633,-0.9992565512657166,0,0,0,-1,-1,,,,,,,,,,,,,,,,,,1,0.71
2021-12-13 15:41:49.787 -0500,,,,,,,,,,15880.49079529167,0.0236053466796875,0.0269775390625,-1.00164794921875,15880.48582529167,-0.02177030644390026,0.02140367291237961,-0.03242003691294267,-0.05262087285518646,-0.01474938541650772,-0.002260897774249315,0.001573678106069565,-0.005619950592517853,-0.003699362277984619,XArbitraryZVertical,-0.01609094965222656,0.01087602010144156,-0.01105634135325123,0.9997501918058148,0.02139079198241234,0.03241435810923576,-0.9992455840110779,0,0,0,-1,-1,,,,,,,,,,,,,,,,,,1,0.71
2021-12-13 15:41:49.797 -0500,,,,,,,,,,15880.50073529167,0.023345947265625,0.0291595458984375,-1.00299072265625,15880.49576529167,-0.02176965079272902,0.0212355938496009,-0.0330473802033472,-0.07074102014303207,-0.02054708637297153,-0.001501364167779684,0.002382935956120491,-0.006063852459192276,-0.00241929292678833,XArbitraryZVertical,-0.01640547550427356,0.01079535474174478,-0.01105793466337763,0.9997459852012975,0.02122240327298641,0.03304136544466019,-0.9992286562919617,0,0,0,-1,-1,,,,,,,,,,,,,,,,,,1,0.71
2021-12-13 15:41:49.807 -0500,,,,,,,,,,15880.51067429167,0.0217132568359375,0.029052734375,-1.002670288085938,15880.50570429167,-0.021779912756217,0.02106449816479425,-0.03379411632648225,-0.0811728909611702,-0.01432560849934816,-0.003342939773574471,0.002295026555657387,-0.004628162831068039,-0.00378340482711792,XArbitraryZVertical,-0.01677963908999399,0.01071391135628268,-0.01106552364458611,0.9997406395307286,0.02105091512203217,0.03378768265247345,-0.9992073178291321,0,0,0,-1,-1,,,,,,,,,,,,,,,,,,1,0.71
2021-12-13 15:41:49.817 -0500,,,,,,,,,,15880.52061429167,0.023223876953125,0.0296478271484375,-1.001449584960938,15880.51564429167,-0.02179875259044975,0.02096815569293454,-0.03457749628554108,-0.07755791395902634,-0.005339570343494415,-0.002265691058710217,0.0007591638714075089,-0.005517896264791489,-0.003487706184387207,XArbitraryZVertical,-0.01717166166100745,0.01067010957831835,-0.01107816632133157,0.9997342341389537,0.02095408737659454,0.0345706082880497,-0.9991825819015503,0,0,0,-1,-1,,,,,,,,,,,,,,,,,,1,0.71
2021-12-13 15:41:49.827 -0500,,,,,,,,,,15880.53055429167,0.022918701171875,0.031890869140625,-1.00189208984375,15880.52558429167,-0.0218084187940177,0.02091689360129587,-0.03532246266438895,-0.07457596808671951,-0.004253801889717579,-0.003649203572422266,0.002321548759937286,-0.005667317658662796,-0.002291977405548096,XArbitraryZVertical,-0.01754427839174405,0.0106485607779993,-0.01108638152979264,0.9997279214702413,0.02090232260525227,0.03531511873006821,-0.9991576075553894,0,0,0,-1,-1,,,,,,,,,,,,,,,,,,1,0.71
2021-12-13 15:41:49.836 -0500,,,,,,,,,,15880.54049329167,0.02288818359375,0.0333251953125,-1.004714965820312,15880.53552429167,-0.02182487725241513,0.02082384437461787,-0.0360536386835581,-0.0721314549446106,-0.01653550192713737,-0.001260081771761179,0.002109887078404427,-0.004154987633228302,-0.002758622169494629,XArbitraryZVertical,-0.01791019543477554,0.01060611352537359,-0.01109752637338867,0.9997217859176992,0.02080880850553513,0.03604582697153091,-0.9991334676742554,0,0,0,-1,-1,,,,,,,,,,,,,,,,,,1,0.71
2021-12-13 15:41:49.847 -0500,,,,,,,,,,15880.55043329167,0.0225830078125,0.0338592529296875,-1.006088256835938,15880.54546329167,-0.02182406641567068,0.02064350192868139,-0.03671228381625553,-0.0610809326171875,-0.02309180423617363,-0.001330389175564051,0.002260049805045128,-0.003378868103027344,-0.005601704120635986,XArbitraryZVertical,-0.01824043234674381,0.0105194912553437,-0.0110988393192312,0.9997166909192469,0.02062812633812428,0.03670403733849525,-0.9991132616996765,0,0,0,-1,-1,,,,,,,,,,,,,,,,,,1,0.71
2021-12-13 15:41:49.856 -0500,,,,,,,,,,15880.56037329167,0.0217437744140625,0.0339508056640625,-1.005813598632812,15880.55540329167,-0.02183458966879177,0.02038638466382347,-0.03720949275555379,-0.04331126064062119,-0.02710891515016556,-0.002070215297862887,0.002212138846516609,-0.003341678529977798,-0.006988108158111572,XArbitraryZVertical,-0.01849033803076525,0.01039373087077103,-0.01110423697987106,0.9997134181414505,0.02037086151540279,0.03720090538263321,-0.9991001486778259,0,0,0,-1,-1,,,,,,,,,,,,,,,,,,1,0.71
2021-12-13 15:41:49.866 -0500,,,,,,,,,,15880.57031329167,0.0191802978515625,0.03509521484375,-1.003433227539062,15880.56534329167,-0.02184070054630398,0.02012530471044137,-0.0375172082193209,-0.02223606593906879,-0.02086340263485909,-0.002342656487599015,0.001633981242775917,-0.003557626157999039,-0.006719648838043213,XArbitraryZVertical,-0.01864557283306018,0.01026493705808683,-0.01110639575267724,0.99971170363642,0.02010978572070599,0.03750840947031975,-0.9990939497947693,0,0,0,-1,-1,,,,,,,,,,,,,,,,,,1,0.71
2021-12-13 15:41:49.876 -0500,,,,,,,,,,15880.58025229167,0.021087646484375,0.0359954833984375,-1.000885009765625,15880.57528329167,-0.02184826774380571,0.02002035940017559,-0.03763860405400832,-0.006321814842522144,-0.001172255724668503,-0.0002669887617230415,-0.0008245538920164108,-0.002534527331590652,-0.004341721534729004,XArbitraryZVertical,-0.01870679570691503,0.01021320045377621,-0.01110979366276367,0.9997111555338275,0.02000484429299831,0.03762971609830856,-0.9990915060043335,0,0,0,-1,-1,,,,,,,,,,,,,,,,,,1,0.71
2021-12-13 15:41:49.886 -0500,,,,,,,,,,15880.59019229167,0.0215911865234375,0.0360260009765625,-1.003448486328125,15880.58522229167,-0.02184878318551204,0.02012241634701087,-0.03761309526910027,0.01539945974946022,0.01723621040582657,-0.0001757754944264889,0.000980813056230545,-0.001608770340681076,-0.001794576644897461,XArbitraryZVertical,-0.01869347494551,0.01026408186280656,-0.0111108799407941,0.9997108943133547,0.02010682784020901,0.03760422766208649,-0.9990904331207275,0,0,0,-1,-1,,,,,,,,,,,,,,,,,,1,0.71
2021-12-13 15:41:49.896 -0500,,,,,,,,,,15880.60013229167,0.022491455078125,0.0347747802734375,-1.006500244140625,15880.59516229167,-0.02185910250716929,0.02033335497423154,-0.03737091633787342,0.03369324654340744,0.02052734419703484,0.001405609305948019,0.001273421570658684,-0.001336246728897095,-0.00435328483581543,XArbitraryZVertical,-0.01857119580433544,0.01036831775510331,-0.01111680446536703,0.9997119625907679,0.02031775750219822,0.03736221790313721,-0.9990952014923096,0,0,0,-1,-1,,,,,,,,,,,,,,,,,,1,0.71
2021-12-13 15:41:49.906 -0500,,,,,,,,,,15880.61007229167,0.022216796875,0.0328216552734375,-1.003128051757812,15880.60510229167,-0.02184380118485283,0.02053970893598317,-0.03691370653409048,0.05550746619701385,0.01583821885287762,0.002967686392366886,0.001967171207070351,-0.002130575478076935,-0.007392227649688721,XArbitraryZVertical,-0.01834158876270465,0.01046887042618178,-0.01110877142318219,0.9997152309430832,0.02052427269518375,0.03690532222390175,-0.9991079568862915,0,0,0,-1,-1,,,,,,,,,,,,,,,,,,1,0.71
2021-12-13 15:41:49.916 -0500,,,,,,,,,,15880.62001129167,0.02178955078125,0.03173828125,-1.002273559570312,15880.61504129167,-0.02183375009233609,0.02071038446255309,-0.03631514948226802,0.06154351681470871,0.01828699372708797,0.001877122092992067,0.001521538943052292,-0.003485538065433502,-0.0040016770362854,XArbitraryZVertical,-0.0180414976146,0.01055088139778071,-0.01110227333742142,0.999719957591129,0.02069525048136711,0.03630716726183891,-0.9991263747215271,0,0,0,-1,-1,,,,,,,,,,,,,,,,,,1,0.71
2021-12-13 15:41:49.926 -0500,,,,,,,,,,15880.62995129167,0.02069091796875,0.03271484375,-1.003997802734375,15880.62498129167,-0.02183057617661209,0.02088511007288739,-0.03566891848828742,0.0667627826333046,0.01461775787174702,0.002125328872352839,0.0009192358702421188,-0.003923103213310242,-0.003127574920654297,XArbitraryZVertical,-0.01771751726337542,0.01063472553907389,-0.01109895288083395,0.9997249157792476,0.02087030932307243,0.03566135466098785,-0.9991459846496582,0,0,0,-1,-1,,,,,,,,,,,,,,,,,,1,0.71
2021-12-13 15:41:49.936 -0500,,,,,,,,,,15880.63989129167,0.0230560302734375,0.0324859619140625,-1.002044677734375,15880.63492129167,-0.02182804818987458,0.02101403585733085,-0.03499595075317959,0.06753376871347427,0.009953763335943222,0.001287232153117657,-0.0003087129443883896,-0.00227399542927742,-0.004830718040466309,XArbitraryZVertical,-0.0173804226578757,0.01069553969613633,-0.0110953621223749,0.9997301777165508,0.02099962346255779,0.03498880937695503,-0.9991670250892639,0,0,0,-1,-1,,,,,,,,,,,,,,,,,,1,0.71
2021-12-13 15:41:49.946 -0500,,,,,,,,,,15880.64983129167,0.022186279296875,0.029052734375,-1.00262451171875,15880.64486129167,-0.02182916969690831,0.02109995247971811,-0.03430965482116653,0.07191919535398483,0.005919141694903374,0.0007575289346277714,0.001970052719116211,-0.001816987991333008,-0.002855658531188965,XArbitraryZVertical,-0.01703688212632554,0.01073481423574962,-0.0110931146902168,0.9997357096093626,0.02108597010374069,0.03430292382836342,-0.999189019203186,0,0,0,-1,-1,,,,,,,,,,,,,,,,,,1,0.71
2021-12-13 15:41:49.956 -0500,,,,,,,,,,15880.65977029167,0.0213470458984375,0.0281982421875,-1.002410888671875,15880.65480029167,-0.02183699981387818,0.02117076117253856,-0.0336035310506179,0.07007628679275513,0.01027793809771538,0.001776720862835646,0.001029044389724731,-0.004544500261545181,-0.003413021564483643,XArbitraryZVertical,-0.01668347574937629,0.01076648490363399,-0.01109396045296161,0.9997413555752486,0.02115722931921482,0.03359720855951309,-0.9992114901542664,0,0,0,-1,-1,,,,,,,,,,,,,,,,,,1,0.71
2021-12-13 15:41:49.966 -0500,,,,,,,,,,15880.66971029167,0.0221099853515625,0.0277252197265625,-1.003738403320312,15880.66474029167,-0.02184377119268527,0.02129371815524807,-0.03295649854459048,0.059577576816082,0.01319283433258533,0.00145740807056427,6.648898124694824e-05,-0.004752323031425476,-0.003180444240570068,XArbitraryZVertical,-0.01635932402191842,0.01082452961644698,-0.01109498705200502,0.9997459842532528,0.02128054760396481,0.03295053169131279,-0.9992303848266602,0,0,0,-1,-1,,,,,,,,,,,,,,,,,,1,0.71
2021-12-13 15:41:49.976 -0500,,,,,,,,,,15880.67965029167,0.023162841796875,0.0268096923828125,-1.002761840820312,15880.67468029167,-0.02184795742290203,0.02141388003059229,-0.03245668731032218,0.04019588232040405,0.008819924667477608,-0.0005370331928133965,0.0007090121507644653,-0.004725795239210129,-0.004494249820709229,XArbitraryZVertical,-0.01610879101943223,0.01088194378523552,-0.01109543188232481,0.9997494327617273,0.02140096575021744,0.03245098888874054,-0.9992441534996033,0,0,0,-1,-1,,,,,,,,,,,,,,,,,,1,0.71
2021-12-13 15:41:49.986 -0500,,,,,,,,,,15880.68958929167,0.023773193359375,0.0270843505859375,-1.002471923828125,15880.68462029167,-0.02184644295613964,0.02149389844339633,-0.03218075163293654,0.01423459313809872,0.004791358485817909,-0.0005801767110824585,0.001681717112660408,-0.005365535616874695,-0.003510415554046631,XArbitraryZVertical,-0.01597042233870348,0.01092044860757145,-0.01109386189441793,0.9997511945536295,0.02148111537098885,0.03217519819736481,-0.9992513656616211,0,0,0,-1,-1,,,,,,,,,,,,,,,,,,1,0.71
2021-12-13 15:41:49.996 -0500,,,,,,,,,,15880.69952929167,0.0227813720703125,0.0267791748046875,-1.002792358398438,15880.69455929167,-0.02186373601078759,0.02147404405035211,-0.03221395440326354,-0.01690415106713772,-0.007848536595702171,-0.002689932938665152,0.002311930060386658,-0.005124062299728394,-0.00322115421295166,XArbitraryZVertical,-0.01598703520007883,0.01091084036803151,-0.01110252284095657,0.999750953552306,0.0214612539857626,0.03220838308334351,-0.9992507100105286,0,0,0,-1,-1,,,,,,,,,,,,,,,,,,1,0.71
2021-12-13 15:41:50.005 -0500,,,,,,,,,,15880.70946929167,0.022064208984375,0.027557373046875,-1.003387451171875,15880.70449929167,-0.02187607764468757,0.0213806179567461,-0.03251929063699784,-0.04260232299566269,-0.01058157160878181,-0.004323116037994623,0.001413678750395775,-0.005734410136938095,-0.003549516201019287,XArbitraryZVertical,-0.01614011745468275,0.0108658808036518,-0.01110955009431624,0.9997488986174385,0.02136768586933613,0.03251355886459351,-0.9992428421974182,0,0,0,-1,-1,,,,,,,,,,,,,,,,,,1,0.71
2021-12-13 15:41:50.015 -0500,,,,,,,,,,15880.71940929167,0.0216064453125,0.02691650390625,-1.001144409179688,15880.71443929167,-0.02188933340417877,0.02127209822492886,-0.03303871898787795,-0.06266018748283386,-0.01437178254127502,-0.0003728494048118591,0.0008053164929151535,-0.005475360900163651,-0.004159271717071533,XArbitraryZVertical,-0.01640029690031277,0.01081453727642542,-0.0111180148189246,0.9997452039010684,0.0212588869035244,0.03303270787000656,-0.9992281794548035,0,0,0,-1,-1,,,,,,,,,,,,,,,,,,1,0.71
2021-12-13 15:41:50.025 -0500,,,,,,,,,,15880.72934829167,0.0220947265625,0.0297088623046875,-1.003860473632812,15880.72437829167,-0.02188878555278248,0.02119067057265015,-0.03368698674727424,-0.06604906171560287,-0.005382315255701542,-0.001001755008473992,0.000429375097155571,-0.006764139980077744,-0.001936137676239014,XArbitraryZVertical,-0.01672480426948205,0.01077731870365497,-0.01112044760221634,0.9997402046856897,0.02117706276476383,0.03368061408400536,-0.9992082715034485,0,0,0,-1,-1,,,,,,,,,,,,,,,,,,1,0.71
2021-12-13 15:41:50.035 -0500,,,,,,,,,,15880.73928829167,0.022491455078125,0.0296783447265625,-1.002700805664062,15880.73431829167,-0.02189608854932514,0.02112923585707836,-0.03434471246283465,-0.06786214560270309,-0.004250738769769669,-0.004170117899775505,0.0009795129299163818,-0.004629127681255341,-0.004673242568969727,XArbitraryZVertical,-0.01705388421654399,0.01075021073751756,-0.01112699652334726,0.9997348807964207,0.02111520431935787,0.03433796018362045,-0.999187171459198,0,0,0,-1,-1,,,,,,,,,,,,,,,,,,1,0.71
2021-12-13 15:41:50.045 -0500,,,,,,,,,,15880.74922829167,0.0242767333984375,0.031158447265625,-1.002212524414062,15880.74425829167,-0.02191199464516826,0.02105135552433521,-0.03498737370956583,-0.06420349329710007,-0.01176617853343487,-0.001236379612237215,0.001454530283808708,-0.005301918834447861,-0.003534257411956787,XArbitraryZVertical,-0.01737547741852096,0.01071487709369281,-0.01113760327804791,0.9997296507780952,0.02103691920638084,0.03498023748397827,-0.9991665482521057,0,0,0,-1,-1,,,,,,,,,,,,,,,,,,1,0.71
2021-12-13 15:41:50.055 -0500,,,,,,,,,,15880.75916829167,0.0206451416015625,0.0304718017578125,-1.004043579101562,15880.75419829167,-0.02190944516000312,0.02091265118578737,-0.03560037977936772,-0.06197895109653473,-0.01565226353704929,0.0008507398888468742,0.003378847613930702,-0.004434440284967422,-0.003064632415771484,XArbitraryZVertical,-0.01768268475342861,0.01064882223217921,-0.01113826913538375,0.9997249270374967,0.02089787647128105,0.03559286147356033,-0.9991478323936462,0,0,0,-1,-1,,,,,,,,,,,,,,,,,,1,0.71
2021-12-13 15:41:50.065 -0500,,,,,,,,,,15880.76910729167,0.0210723876953125,0.0330657958984375,-1.00408935546875,15880.76413729167,-0.0219101526509954,0.02075512474330945,-0.03618805731355792,-0.05865825712680817,-0.01887818425893784,-0.001494306605309248,-9.491294622421265e-05,-0.005708381533622742,-0.004913508892059326,XArbitraryZVertical,-0.01797731644526247,0.01057325021551436,-0.01114022058950876,0.9997204744613822,0.02074004709720612,0.03618016093969345,-0.9991300702095032,0,0,0,-1,-1,,,,,,,,,,,,,,,,,,1,0.71
2021-12-13 15:41:50.075 -0500,,,,,,,,,,15880.77904729167,0.0209197998046875,0.03387451171875,-1.003280639648438,15880.77407729167,-0.021907645973004,0.02060001332112505,-0.03672476079830531,-0.04977821558713913,-0.01136833615601063,-0.001647704746574163,0.0004877112805843353,-0.003650739789009094,-0.004975616931915283,XArbitraryZVertical,-0.01824647242553836,0.01049858294544572,-0.01114028407188731,0.9997162998950708,0.02058466710150242,0.03671650588512421,-0.9991136789321899,0,0,0,-1,-1,,,,,,,,,,,,,,,,,,1,0.71
2021-12-13 15:41:50.085 -0500,,,,,,,,,,15880.78898729167,0.020843505859375,0.0354461669921875,-1.003631591796875,15880.78401729167,-0.0219090684874099,0.02045870269492167,-0.03712672670562822,-0.03536438196897507,-0.01424824539572001,0.00165368290618062,0.0004766155034303665,-0.003243710845708847,-0.004178881645202637,XArbitraryZVertical,-0.01844817881133391,0.01043012391789681,-0.01114172077357208,0.9997132889232562,0.02044317871332169,0.03711819648742676,-0.9991017580032349,0,0,0,-1,-1,,,,,,,,,,,,,,,,,,1,0.71
2021-12-13 15:41:50.095 -0500,,,,,,,,,,15880.79892629167,0.0231475830078125,0.031402587890625,-1.00372314453125,15880.79395729167,-0.02190128287307742,0.02029250539449036,-0.03734014432612971,-0.01467055827379227,-0.02053064294159412,0.003643064294010401,0.0005665291100740433,-0.001885328441858292,-0.004534363746643066,XArbitraryZVertical,-0.01855582371861768,0.01034812542442214,-0.01113735680308933,0.9997121879634834,0.02027696929872036,0.0373314693570137,-0.9990971684455872,0,0,0,-1,-1,,,,,,,,,,,,,,,,,,1,0.71
2021-12-13 15:41:50.105 -0500,,,,,,,,,,15880.80886629167,0.0222320556640625,0.031707763671875,-1.000808715820312,15880.80389629167,-0.02172151430686451,0.02009616618954467,-0.03735587188194851,0.004767587874084711,-0.01851765811443329,0.02988598495721817,0.003066781908273697,-0.005944624543190002,-0.004622578620910645,XArbitraryZVertical,-0.01856569980602255,0.01024839992604913,-0.01104575399151855,0.9997140467576935,0.02008079364895821,0.03734718263149261,-0.9991005659103394,0,0,0,-1,-1,,,,,,,,,,,,,,,,,,1,0.71
2021-12-13 15:41:50.115 -0500,,,,,,,,,,15880.81880629167,0.0191497802734375,0.0332794189453125,-0.9996795654296875,15880.81383629167,-0.02136376498979373,0.02010049199609059,-0.03723698231979152,0.01322658639401197,0.01731410995125771,0.0385388620197773,0.002146843820810318,-0.005520641803741455,-0.001703798770904541,XArbitraryZVertical,-0.01850808121616498,0.01024661755018846,-0.01086638512895794,0.9997170878164475,0.02008520625531673,0.03722837567329407,-0.999104917049408,0,0,0,-1,-1,,,,,,,,,,,,,,,,,,1,0.71
2021-12-13 15:41:50.125 -0500,,,,,,,,,,15880.82874629167,0.0211029052734375,0.0334625244140625,-1.004837036132812,15880.82377629167,-0.02100035169515824,0.02043017120637243,-0.03704155586121217,0.02235510386526585,0.04038380831480026,0.03575959056615829,-0.001264963299036026,-0.003753695636987686,-0.0005740523338317871,XArbitraryZVertical,-0.01841049388466422,0.01040703952543052,-0.01068680107810542,0.9997192391161555,0.02041473612189293,0.0370330847799778,-0.9991055130958557,0,0,0,-1,-1,,,,,,,,,,,,,,,,,,1,0.71
2021-12-13 15:41:50.135 -0500,,,,,,,,,,15880.83868529167,0.022979736328125,0.033355712890625,-1.008651733398438,15880.83371629167,-0.02066891902405689,0.02081668771760117,-0.03670037607703253,0.04324281215667725,0.02776814810931683,0.03061462752521038,0.0003017298877239227,-0.003229640424251556,-0.005726933479309082,XArbitraryZVertical,-0.0182396405623376,0.01059546209958783,-0.01052294591269171,0.9997221937459342,0.02080116793513298,0.03669213876128197,-0.9991101026535034,0,0,0,-1,-1,,,,,,,,,,,,,,,,,,1,0.71
2021-12-13 15:41:50.145 -0500,,,,,,,,,,15880.84862529167,0.02325439453125,0.0337982177734375,-1.005950927734375,15880.84365529167,-0.02039247423911018,0.02095804027991768,-0.03614139690630457,0.06205564737319946,-0.0002372544258832932,0.02928864024579525,0.002036908641457558,-0.002777840942144394,-0.009524226188659668,XArbitraryZVertical,-0.01796095849352773,0.01066080276634255,-0.01038317572556878,0.9997279229432232,0.02094282023608685,0.0361335277557373,-0.9991275072097778,0,0,0,-1,-1,,,,,,,,,,,,,,,,,,1,0.71
2021-12-13 15:41:50.155 -0500,,,,,,,,,,15880.85856529167,0.0217742919921875,0.031494140625,-1.002944946289062,15880.85359529167,-0.02014669974161715,0.02094051394516354,-0.03546533905537588,0.07114075124263763,-0.006554804742336273,0.02361184544861317,0.002328570932149887,-0.001659713685512543,-0.006798863410949707,XArbitraryZVertical,-0.01762441808822935,0.01064649344170346,-0.01025668661281738,0.9997354009999523,0.02092581614851952,0.03545790538191795,-0.9991520643234253,0,0,0,-1,-1,,,,,,,,,,,,,,,,,,1,0.71
2021-12-13 15:41:50.165 -0500,,,,,,,,,,15880.86850529167,0.0200653076171875,0.03204345703125,-1.001571655273438,15880.86353529167,-0.01993823464424449,0.0209299089635789,-0.03475124199303202,0.06878598034381866,0.002518318593502045,0.02244511619210243,0.0008585378527641296,-0.003250136971473694,-0.003767549991607666,XArbitraryZVertical,-0.01726862424954805,0.01063586191681404,-0.01014871469045894,0.9997428489623809,0.02091574482619762,0.03474424779415131,-0.9991773366928101,0,0,0,-1,-1,,,,,,,,,,,,,,,,,,1,0.71
2021-12-13 15:41:50.174 -0500,,,,,,,,,,15880.87844429167,0.0205535888671875,0.028900146484375,-1.002532958984375,15880.87347429167,-0.01974770834992913,0.02107395187053711,-0.03406895918954006,0.0666021928191185,0.0254095196723938,0.02093243971467018,-0.0009948629885911942,-0.002018939703702927,-0.002373874187469482,XArbitraryZVertical,-0.01692785734072162,0.01070291398467775,-0.0100511838945689,0.9997489455230956,0.0210601631551981,0.03406237065792084,-0.999197781085968,0,0,0,-1,-1,,,,,,,,,,,,,,,,,,1,0.71
2021-12-13 15:41:50.184 -0500,,,,,,,,,,15880.88838429167,0.022491455078125,0.0298309326171875,-1.003707885742188,15880.88341429167,-0.01957194325824988,0.02135672254352593,-0.0334191808909048,0.06470175832509995,0.02687961794435978,0.01928567327558994,-0.0007895957678556442,-0.004512842744588852,-0.003319203853607178,XArbitraryZVertical,-0.01660257914047675,0.01083965563812447,-0.00996230152501483,0.9997538474615218,0.0213431753218174,0.03341295942664146,-0.999213695526123,0,0,0,-1,-1,,,,,,,,,,,,,,,,,,1,0.71
2021-12-13 15:41:50.194 -0500,,,,,,,,,,15880.89832429167,0.0235748291015625,0.0297698974609375,-1.003158569335938,15880.89335429167,-0.01943750191373188,0.02153970848224665,-0.032798670046392,0.05956132709980011,0.009051352739334106,0.01290314085781574,0.0009649880230426788,-0.002961885184049606,-0.004477560520172119,XArbitraryZVertical,-0.01629222342947568,0.01092705198003301,-0.009893326803726113,0.9997585709505048,0.02152645960450172,0.03279278799891472,-0.9992303252220154,0,0,0,-1,-1,,,,,,,,,,,,,,,,,,1,0.71
2021-12-13 15:41:50.204 -0500,,,,,,,,,,15880.90826329167,0.0240478515625,0.026641845703125,-1.004501342773438,15880.90329429167,-0.0193335793332282,0.02153223440078409,-0.03230584874411017,0.03765469789505005,-0.00851878710091114,0.01158034987747669,0.002055484801530838,-0.002530358731746674,-0.003912031650543213,XArbitraryZVertical,-0.01604647511858241,0.01092013078251265,-0.009838703431123043,0.9997631727368388,0.02151933684945107,0.03230023011565208,-0.9992465376853943,0,0,0,-1,-1,,,,,,,,,,,,,,,,,,1,0.71
2021-12-13 15:41:50.214 -0500,,,,,,,,,,15880.91820329167,0.022064208984375,0.0272369384765625,-1.001800537109375,15880.91323329167,-0.01926673126975134,0.02139901389104458,-0.03205238088320071,0.01073546521365643,-0.01788938604295254,0.003572756424546242,0.002661451697349548,-0.00540507584810257,-0.005243778228759766,XArbitraryZVertical,-0.01592078812838085,0.01085180076562747,-0.009802882015998618,0.9997663076414842,0.02138639055192471,0.03204689174890518,-0.999257504940033,0,0,0,-1,-1,,,,,,,,,,,,,,,,,,1,0.71
2021-12-13 15:41:50.248 -0500,,,,,,,,,,15880.92814329167,0.0208282470703125,0.0267486572265625,-0.998321533203125,15880.92317329167,-0.01923914035929521,0.0212601969898479,-0.03212445535402896,-0.02514317259192467,-0.01110168639570475,0.00276621850207448,0.0008165724575519562,-0.004882019013166428,-0.002542316913604736,XArbitraryZVertical,-0.01595764619385896,0.01078252931236637,-0.009788362156840449,0.9997666117270795,0.0212476272135973,0.03211893141269684,-0.9992581605911255,0,0,0,-1,-1,,,,,,,,,,,,,,,,,,1,0.71
2021-12-13 15:41:50.251 -0500,,,,,,,,,,15880.93808329167,0.0221710205078125,0.0287017822265625,-1.000137329101562,15880.93311329167,-0.0192207213156141,0.02122437395973086,-0.03248633678282181,-0.04875875264406204,0.002154996618628502,0.001768598333001137,-0.0003833416849374771,-0.005731992423534393,0.0009257197380065918,XArbitraryZVertical,-0.01613882023280146,0.01076618304923079,-0.009780761125386303,0.9997639092653288,0.02121158316731453,0.0324806235730648,-0.9992472529411316,0,0,0,-1,-1,,,,,,,,,,,,,,,,,,1,0.71
2021-12-13 15:41:50.253 -0500,,,,,,,,,,15880.94802229167,0.020904541015625,0.02911376953125,-1.002609252929688,15880.94305329167,-0.01921974482947639,0.02128758767138745,-0.03305748764590338,-0.063592828810215,0.01207400672137737,-0.004411533009260893,0.0008966643363237381,-0.004349712282419205,-0.0009101033210754395,XArbitraryZVertical,-0.01642402502343232,0.01080046883844283,-0.00978377740198514,0.9997588382120397,0.02127435058355331,0.03305146843194962,-0.9992272257804871,0,0,0,-1,-1,,,,,,,,,,,,,,,,,,1,0.71
2021-12-13 15:41:50.254 -0500,,,,,,,,,,15880.95796229167,0.0231475830078125,0.0300445556640625,-1.002975463867188,15880.95299229167,-0.01922633860727562,0.02135287572385552,-0.03372035648044461,-0.06962861865758896,-0.0005022380501031876,-0.001060477457940578,-0.0004345811903476715,-0.004600223153829575,-0.003405570983886719,XArbitraryZVertical,-0.01675502329847656,0.0108362846937926,-0.009791093505222665,0.9997529616966977,0.02133911475539207,0.03371396660804749,-0.9992036819458008,0,0,0,-1,-1,,,,,,,,,,,,,,,,,,1,0.71
2021-12-13 15:41:50.264 -0500,,,,,,,,,,15880.96790229167,0.0226898193359375,0.029144287109375,-1.00518798828125,15880.96293229167,-0.01924029628430146,0.02124646115453755,-0.03437342323917801,-0.06437207013368607,-0.01975146867334843,-0.0008949623443186283,0.001915261149406433,-0.004322130233049393,-0.003791689872741699,XArbitraryZVertical,-0.01708192213464997,0.01078628908124673,-0.009800593794143667,0.9997478740862221,0.02123231254518032,0.03436665609478951,-0.999183714389801,0,0,0,-1,-1,,,,,,,,,,,,,,,,,,1,0.71
2021-12-13 15:41:50.274 -0500,,,,,,,,,,15880.97784229167,0.0221405029296875,0.03204345703125,-1.00469970703125,15880.97287229167,-0.01924191302017353,0.02098739759474053,-0.03500741023701012,-0.06655693054199219,-0.03048001229763031,-0.001815617084503174,0.001716814935207367,-0.005855999886989594,-0.006020784378051758,XArbitraryZVertical,-0.01740009616188637,0.01065979448479996,-0.009802461487443867,0.9997437809706975,0.02097299881279469,0.0350002609193325,-0.9991672039031982,0,0,0,-1,-1,,,,,,,,,,,,,,,,,,1,0.71
2021-12-13 15:41:50.284 -0500,,,,,,,,,,15880.98778129167,0.0203094482421875,0.030792236328125,-1.0010986328125,15880.98281129167,-0.01924321458099561,0.02075440212674214,-0.03563942672951858,-0.06223168969154358,-0.0159817636013031,-0.0008108061738312244,0.001400759443640709,-0.003588452935218811,-0.005549907684326172,XArbitraryZVertical,-0.01771715914143949,0.01054631985789476,-0.009804309904871387,0.999739390170323,0.02073973417282104,0.03563188388943672,-0.9991497397422791,0,0,0,-1,-1,,,,,,,,,,,,,,,,,,1,0.71
2021-12-13 15:41:50.294 -0500,,,,,,,,,,15880.99772129167,0.0200653076171875,0.0326690673828125,-1.00323486328125,15880.99275129167,-0.019240894485396,0.02069813474575674,-0.0362088782732734,-0.05568324029445648,0.001946903765201569,0.000175895169377327,-0.0003736503422260284,-0.005408760160207748,-0.001968145370483398,XArbitraryZVertical,-0.01800210051736381,0.01052085945533386,-0.00980554931099362,0.9997344755647648,0.02068309113383293,0.03620096668601036,-0.9991304874420166,0,0,0,-1,-1,,,,,,,,,,,,,,,,,,1,0.71
2021-12-13 15:41:50.304 -0500,,,,,,,,,,15881.00766129167,0.0227813720703125,0.032623291015625,-1.006301879882812,15881.00269129167,-0.01923341678154704,0.0207675335683813,-0.03672146306942382,-0.04825248569250107,0.005438573658466339,-0.0008531506173312664,-0.0006867442280054092,-0.004044171422719955,-0.004124462604522705,XArbitraryZVertical,-0.01825802380786541,0.01055789761645143,-0.009805051546655744,0.9997294781046963,0.02075204066932201,0.03671320900321007,-0.9991103410720825,0,0,0,-1,-1,,,,,,,,,,,,,,,,,,1,0.71
2021-12-13 15:41:50.314 -0500,,,,,,,,,,15881.01760029167,0.0232086181640625,0.03607177734375,-1.005142211914062,15881.01263129167,-0.01922547039657237,0.02068241300175285,-0.03704380642736344,-0.01873454265296459,-0.02123857662081718,-0.001187910092994571,0.002114614471793175,-0.004412069916725159,-0.007201671600341797,XArbitraryZVertical,-0.01841961026297731,0.01051679382075175,-0.009801939476304542,0.9997270393378399,0.02066675014793873,0.03703533485531807,-0.9991002082824707,0,0,0,-1,-1,,,,,,,,,,,,,,,,,,1,0.71
2021-12-13 15:41:50.324 -0500,,,,,,,,,,15881.02754029167,0.02069091796875,0.0325775146484375,-1.0003662109375,15881.02257029167,-0.01923763410693732,0.02040120752948527,-0.03710331754468652,0.002878874074667692,-0.03106044791638851,-0.0002281069755554199,0.002822855487465858,-0.001023057848215103,-0.006038367748260498,XArbitraryZVertical,-0.01845067236765562,0.01037662171711632,-0.00980572768243872,0.9997279138858441,0.02038575150072575,0.03709480538964272,-0.9991037845611572,0,0,0,-1,-1,,,,,,,,,,,,,,,,,,1,0.71
2021-12-13 15:41:50.333 -0500,,,,,,,,,,15881.03748029167,0.0196685791015625,0.032684326171875,-0.999908447265625,15881.03251029167,-0.01924298491053843,0.02024363117161639,-0.03702267806041189,0.01181271485984325,0.001184040680527687,-0.0003250460140407085,0.0004625339061021805,-0.004436735063791275,-0.001256227493286133,XArbitraryZVertical,-0.01841111066349829,0.01029752537623333,-0.009806549086150642,0.9997293275077862,0.02022837661206722,0.03701421990990639,-0.9991099834442139,0,0,0,-1,-1,,,,,,,,,,,,,,,,,,1,0.71
2021-12-13 15:41:50.343 -0500,,,,,,,,,,15881.04742029167,0.0196990966796875,0.0337371826171875,-1.00146484375,15881.04245029167,-0.01924607406996575,0.02043534109045983,-0.0368571633545364,0.02050314098596573,0.03197344392538071,0.0008840295486152172,-0.000751471146941185,-0.004164524376392365,-0.000796198844909668,XArbitraryZVertical,-0.0183274190117198,0.0103926020590217,-0.009809027166259209,0.9997298717864426,0.02042004093527794,0.03684882074594498,-0.9991121888160706,0,0,0,-1,-1,,,,,,,,,,,,,,,,,,1,0.71
2021-12-13 15:41:50.353 -0500,,,,,,,,,,15881.05735929167,0.02392578125,0.0334930419921875,-1.004928588867188,15881.05239029167,-0.01923103285467247,0.02081037385716018,-0.03657442348899702,0.03647198528051376,0.03499480336904526,0.003112828824669123,-0.001095864921808243,-0.002829115837812424,-0.002349972724914551,XArbitraryZVertical,-0.01818432572194293,0.0105785971743074,-0.009803498874890461,0.9997306433575688,0.0207949560135603,0.03656626865267754,-0.9991148710250854,0,0,0,-1,-1,,,,,,,,,,,,,,,,,,1,0.71
2021-12-13 15:41:50.363 -0500,,,,,,,,,,15881.06729929167,0.02410888671875,0.033966064453125,-1.008636474609375,15881.06232929167,-0.01921039133013716,0.02103231974282663,-0.03612486180282245,0.05277106910943985,0.00634617917239666,-0.0009514214470982552,0.002908727154135704,-0.002623990178108215,-0.005802035331726074,XArbitraryZVertical,-0.01795862568958077,0.01068723627833596,-0.009792874193695738,0.9997337275150781,0.02101704850792885,0.03611700609326363,-0.9991265535354614,0,0,0,-1,-1,,,,,,,,,,,,,,,,,,1,0.71
2021-12-13 15:41:50.373 -0500,,,,,,,,,,15881.07723929167,0.022216796875,0.03302001953125,-1.004165649414062,15881.07226929167,-0.01921114887827087,0.02098189713339331,-0.03554351082657933,0.06299440562725067,-0.01322166249155998,0.0008856272324919701,0.003141773864626884,-0.001569990068674088,-0.009488046169281006,XArbitraryZVertical,-0.01766826881900834,0.01065930179720633,-0.009789801474780606,0.9997392170743741,0.02096710726618767,0.035536028444767,-0.999148428440094,0,0,0,-1,-1,,,,,,,,,,,,,,,,,,1,0.71
2021-12-13 15:41:50.383 -0500,,,,,,,,,,15881.08717929167,0.0205230712890625,0.0303955078125,-0.9998931884765625,15881.08220929167,-0.01921511124338778,0.020873062821979,-0.03493911564885957,0.0598718523979187,-0.007961687631905079,0.001382706221193075,0.001357980072498322,-0.001912016421556473,-0.004993677139282227,XArbitraryZVertical,-0.01736666121988931,0.01060208762190358,-0.009787719505268097,0.9997450435907262,0.02085880935192108,0.03493200615048409,-0.9991719722747803,0,0,0,-1,-1,,,,,,,,,,,,,,,,,,1,0.71
2021-12-13 15:41:50.393 -0500,,,,,,,,,,15881.09711829167,0.0193939208984375,0.0314483642578125,-1.002166748046875,15881.09214829167,-0.01921820255088895,0.0209018643460849,-0.03436657575562638,0.05657512694597244,0.01740971580147743,0.001892968080937862,-0.0003649387508630753,-0.00396433100104332,-0.0007019639015197754,XArbitraryZVertical,-0.01708030466529674,0.01061381283333434,-0.009786571032022962,0.9997498966741262,0.02088800072669983,0.03435981273651123,-0.9991912245750427,0,0,0,-1,-1,,,,,,,,,,,,,,,,,,1,0.71
2021-12-13 15:41:50.403 -0500,,,,,,,,,,15881.10705829167,0.0217132568359375,0.030303955078125,-1.00347900390625,15881.10208829167,-0.01920596770597027,0.02113052721028501,-0.03384275664580966,0.05287386476993561,0.02928781509399414,0.003159833606332541,-0.001722943037748337,-0.002387955784797668,-0.002962470054626465,XArbitraryZVertical,-0.01681740550633782,0.01072554338022862,-0.009779683898981748,0.999753260263032,0.02111685648560524,0.03383629769086838,-0.9992042779922485,0,0,0,-1,-1,,,,,,,,,,,,,,,,,,1,0.71
2021-12-13 15:41:50.413 -0500,,,,,,,,,,15881.11699829167,0.0229644775390625,0.0289459228515625,-1.003616333007812,15881.11202829167,-0.01920393545527527,0.02140355257300272,-0.03333929800002813,0.04849056899547577,0.02210526913404465,0.002268739975988865,0.0003232229501008987,-0.003029197454452515,-0.004263579845428467,XArbitraryZVertical,-0.01656441341084984,0.01085963404629482,-0.009778311107018361,0.9997560314251199,0.02139002457261086,0.03333312273025513,-0.9992153644561768,0,0,0,-1,-1,,,,,,,,,,,,,,,,,,1,0.71
2021-12-13 15:41:50.423 -0500,,,,,,,,,,15881.12693729167,0.02435302734375,0.02923583984375,-1.005477905273438,15881.12196829167,-0.01921176940908421,0.02151075151903041,-0.0328890573625304,0.04125795513391495,-0.0007573366165161133,0.0006099902093410492,0.001467010006308556,-0.003937229514122009,-0.004388332366943359,XArbitraryZVertical,-0.01633878039781239,0.01091116357901024,-0.00978073018626347,0.9997591404991752,0.02149746008217335,0.03288313001394272,-0.9992280006408691,0,0,0,-1,-1,,,,,,,,,,,,,,,,,,1,0.71
2021-12-13 15:41:50.433 -0500,,,,,,,,,,15881.13687729167,0.0225677490234375,0.0255889892578125,-1.002029418945312,15881.13190729167,-0.01920892750549405,0.0213954385340797,-0.03254231023469006,0.02632294781506062,-0.01780849322676659,0.002348235342651606,0.002970542758703232,-0.003300756216049194,-0.006236135959625244,XArbitraryZVertical,-0.01616602615956154,0.01085186269063342,-0.009776539910975887,0.9997626860799674,0.02138247899711132,0.03253656625747681,-0.9992417693138123,0,0,0,-1,-1,,,,,,,,,,,,,,,,,,1,0.71
2021-12-13 15:41:50.443 -0500,,,,,,,,,,15881.14681729167,0.0204315185546875,0.0272064208984375,-1.000686645507812,15881.14184729167,-0.01921881932363566,0.02124418179760087,-0.03238718590072644,0.004244010429829359,-0.01507748570293188,-0.0002949521876871586,0.001336298882961273,-0.006792563945055008,-0.002779364585876465,XArbitraryZVertical,-0.01608916824882819,0.01077560052113912,-0.00977945050551637,0.9997647117429593,0.02123144455254078,0.03238152340054512,-0.999250054359436,0,0,0,-1,-1,,,,,,,,,,,,,,,,,,1,0.71
2021-12-13 15:41:50.453 -0500,,,,,,,,,,15881.15675729167,0.02117919921875,0.02813720703125,-1.001480102539062,15881.15178729167,-0.01922581011933261,0.0211966265607703,-0.03244384281121112,-0.0167068112641573,0.003332413733005524,-0.001312545966356993,-0.000752374529838562,-0.005231760442256927,-0.001437366008758545,XArbitraryZVertical,-0.01611768523410081,0.01075215224380818,-0.009782858379656567,0.9997644615199424,0.02118388563394547,0.03243815153837204,-0.9992492198944092,0,0,0,-1,-1,,,,,,,,,,,,,,,,,,1,0.71
2021-12-13 15:41:50.463 -0500,,,,,,,,,,15881.16669629167,0.0213165283203125,0.0289306640625,-1.002151489257812,15881.16172729167,-0.01921786328885115,0.02129341774317179,-0.03270919237521412,-0.03585147857666016,0.01286213472485542,-9.015481919050217e-05,-0.0001012273132801056,-0.00456618145108223,-0.002241551876068115,XArbitraryZVertical,-0.01624989824899641,0.01080172384383142,-0.009781057303205521,0.9997618164440942,0.02128041908144951,0.03270335868000984,-0.9992385506629944,0,0,0,-1,-1,,,,,,,,,,,,,,,,,,1,0.71
2021-12-13 15:41:50.472 -0500,,,,,,,,,,15881.176637375,0.0224761962890625,0.027130126953125,-1.003326416015625,15881.17166629167,-0.01921200630775816,0.02144287033315912,-0.03310309585972506,-0.04294028133153915,0.01228023320436478,-0.002017218386754394,-0.0001129601150751114,-0.004166413098573685,-0.002929091453552246,XArbitraryZVertical,-0.01644610545301506,0.01087824239585158,-0.009781424644925684,0.9997576951314344,0.02142948098480701,0.0330970510840416,-0.9992223978042603,0,0,0,-1,-1,,,,,,,,,,,,,,,,,,1,0.71
2021-12-13 15:41:50.483 -0500,,,,,,,,,,15881.186577375,0.0242767333984375,0.0286712646484375,-1.003158569335938,15881.181607375,-0.01921543606894505,0.02144158280708108,-0.03354225821580052,-0.04345453530550003,-0.01183272432535887,-0.001794711221009493,0.001048309728503227,-0.006405867636203766,-0.004118621349334717,XArbitraryZVertical,-0.01666562095287623,0.01087969667644615,-0.009785446686007712,0.9997540338388946,0.02142788097262383,0.03353596851229668,-0.9992077946662903,0,0,0,-1,-1,,,,,,,,,,,,,,,,,,1,0.71
2021-12-13 15:41:50.493 -0500,,,,,,,,,,15881.196517375,0.0233001708984375,0.029510498046875,-1.003143310546875,15881.191547375,-0.01923523828050189,0.02124667028353345,-0.03396587863463935,-0.04384708404541016,-0.02317166514694691,-0.0009393037762492895,0.003043906763195992,-0.005288109183311462,-0.003960907459259033,XArbitraryZVertical,-0.01687822688244324,0.01078442835047191,-0.009795936710825822,0.9997513698253307,0.02123281732201576,0.03395934775471687,-0.9991976618766785,0,0,0,-1,-1,,,,,,,,,,,,,,,,,,1,0.71
2021-12-13 15:41:50.503 -0500,,,,,,,,,,15881.206456375,0.02178955078125,0.031005859375,-1.00250244140625,15881.201486375,-0.01924963929426856,0.02102939022170104,-0.03438190792468122,-0.04258767515420914,-0.01736524142324924,-0.0005408949218690395,0.00228474847972393,-0.004864666610956192,-0.003955245018005371,XArbitraryZVertical,-0.01708717669872235,0.01067790047656603,-0.00980345369431224,0.9997489469284001,0.02101541310548782,0.0343751348555088,-0.9991880059242249,0,0,0,-1,-1,,,,,,,,,,,,,,,,,,1,0.71
2021-12-13 15:41:50.512 -0500,,,,,,,,,,15881.216396375,0.0210113525390625,0.0306243896484375,-1.002334594726562,15881.211426375,-0.01924650812435394,0.02093973599089747,-0.0348062015555223,-0.04218979924917221,-0.0009101033210754395,-0.0008431635797023773,0.0008640196174383163,-0.003793340176343918,-0.00332719087600708,XArbitraryZVertical,-0.01729972609160061,0.01063506008790083,-0.00980330747489918,0.9997457902543396,0.02092552371323109,0.03479917347431183,-0.9991752505302429,0,0,0,-1,-1,,,,,,,,,,,,,,,,,,1,0.71
2021-12-13 15:41:50.522 -0500,,,,,,,,,,15881.226336375,0.0205078125,0.0316925048828125,-1.002639770507812,15881.221366375,-0.01924266979478438,0.02101026660783729,-0.03520443188852218,-0.03990933299064636,0.009754126891493797,0.0005121189169585705,1.564249396324158e-05,-0.004572797566652298,-0.003174781799316406,XArbitraryZVertical,-0.01749846718820795,0.01067216291707726,-0.009804057526333638,0.9997418397797406,0.02099570445716381,0.03519716113805771,-0.9991598129272461,0,0,0,-1,-1,,,,,,,,,,,,,,,,,,1,0.71
2021-12-13 15:41:50.532 -0500,,,,,,,,,,15881.236276375,0.022796630859375,0.032806396484375,-1.00604248046875,15881.231306375,-0.01923066899319082,0.0210736978477259,-0.03556559368770591,-0.03615108132362366,0.001762246713042259,0.0006498047150671482,-0.0005510095506906509,-0.003865621984004974,-0.003494024276733398,XArbitraryZVertical,-0.01767875418242242,0.01070546708450334,-0.009800484751074548,0.9997383971606461,0.0210588127374649,0.03555809706449509,-0.9991456866264343,0,0,0,-1,-1,,,,,,,,,,,,,,,,,,1,0.71
2021-12-13 15:41:50.542 -0500,,,,,,,,,,15881.246215375,0.0238189697265625,0.0332794189453125,-1.002456665039062,15881.241245375,-0.01921816473391251,0.02102343218614775,-0.03586083322401401,-0.02557726763188839,-0.01290105096995831,-0.001192836556583643,0.001788254827260971,-0.003046777099370956,-0.006906270980834961,XArbitraryZVertical,-0.01782664906752365,0.01068162092532551,-0.009795316156830401,0.9997360610805943,0.02100836858153343,0.03585314750671387,-0.999136209487915,0,0,0,-1,-1,,,,,,,,,,,,,,,,,,1,0.71
2021-12-13 15:41:50.552 -0500,,,,,,,,,,15881.256155375,0.02197265625,0.03192138671875,-1.002090454101562,15881.251185375,-0.01922516496383449,0.02083249314693137,-0.03608609644682129,-0.02005733363330364,-0.02190892770886421,0.0003739008679986,0.003001537173986435,-0.00279887393116951,-0.003324568271636963,XArbitraryZVertical,-0.01794014865609888,0.01058729984718627,-0.009798266457912231,0.9997350454109601,0.02081742510199547,0.03607826679944992,-0.9991320967674255,0,0,0,-1,-1,,,,,,,,,,,,,,,,,,1,0.71
2021-12-13 15:41:50.562 -0500,,,,,,,,,,15881.266095375,0.020782470703125,0.032684326171875,-1.002273559570312,15881.261125375,-0.01922723336686946,0.02066553973168819,-0.0362656614456872,-0.01975426636636257,-0.01120345294475555,-0.0002214489504694939,0.001322168856859207,-0.004336349666118622,-0.002961337566375732,XArbitraryZVertical,-0.0180307161404421,0.01050471082437325,-0.009798715477438991,0.9997342013601455,0.02065048180520535,0.03625771403312683,-0.9991291165351868,0,0,0,-1,-1,,,,,,,,,,,,,,,,,,1,0.71
2021-12-13 15:41:50.572 -0500,,,,,,,,,,15881.276034375,0.02227783203125,0.0328216552734375,-1.0047607421875,15881.271065375,-0.01922463513030761,0.02065445628166616,-0.03641418616019237,-0.01335895247757435,0.00536726787686348,1.261942088603973e-07,0.0001431666314601898,-0.00372183695435524,-0.003149628639221191,XArbitraryZVertical,-0.01810502715082737,0.01049984701659501,-0.009798070690055833,0.9997329032749654,0.02063929662108421,0.03640614077448845,-0.9991239309310913,0,0,0,-1,-1,,,,,,,,,,,,,,,,,,1,0.71
2021-12-13 15:41:50.582 -0500,,,,,,,,,,15881.285974375,0.0208892822265625,0.0332183837890625,-1.0032958984375,15881.281004375,-0.01921012856826901,0.02075995528548697,-0.03647943154403809,-0.001302555203437805,0.01326993107795715,0.0005143824964761734,0.00153316929936409,-0.003649715334177017,-0.005641341209411621,XArbitraryZVertical,-0.0181372006385925,0.01055275804385919,-0.009792107056231058,0.9997318358159901,0.02074465341866016,0.03647134080529213,-0.9991193413734436,0,0,0,-1,-1,,,,,,,,,,,,,,,,,,1,0.71
2021-12-13 15:41:50.592 -0500,,,,,,,,,,15881.295914375,0.0235595703125,0.0331878662109375,-1.002883911132812,15881.290944375,-0.01920284954064248,0.02083101852445792,-0.03639421712612969,0.01507615204900503,0.002400239929556847,0.003142656292766333,7.355585694313049e-05,-0.003167826682329178,-0.004174888134002686,XArbitraryZVertical,-0.01809429441901548,0.01058781267823334,-0.009788676240382569,0.9997323249901807,0.02081571891903877,0.03638618439435959,-0.9991210103034973,0,0,0,-1,-1,,,,,,,,,,,,,,,,,,1,0.71
2021-12-13 15:41:50.602 -0500,,,,,,,,,,15881.305854375,0.021759033203125,0.03179931640625,-1.003341674804688,15881.300884375,-0.01918757879056173,0.02081502939173798,-0.03616590636548575,0.02674718946218491,-0.003311741165816784,0.0001960019581019878,0.002759646624326706,-0.002970181405544281,-0.003754317760467529,XArbitraryZVertical,-0.0179803285626053,0.01057860901003959,-0.009779730586620787,0.9997345393373133,0.0207999162375927,0.03615802153944969,-0.999129593372345,0,0,0,-1,-1,,,,,,,,,,,,,,,,,,1,0.71
2021-12-13 15:41:50.612 -0500,,,,,,,,,,15881.315793375,0.0208892822265625,0.0316314697265625,-1.001190185546875,15881.310823375,-0.01918558639203964,0.0208118514313187,-0.03588957461309657,0.02868197485804558,0.006256729364395142,0.0007866909727454185,0.0009620767086744308,-0.004082582890987396,-0.004202008247375488,XArbitraryZVertical,-0.01784222535617777,0.01057570371170334,-0.009777292875116344,0.9997370347141395,0.02079694718122482,0.03588186949491501,-0.9991396069526672,0,0,0,-1,-1,,,,,,,,,,,,,,,,,,1,0.71
2021-12-13 15:41:50.622 -0500,,,,,,,,,,15881.325733375,0.0220184326171875,0.0322418212890625,-1.003250122070312,15881.320763375,-0.01918891634853889,0.02093166143824432,-0.03558507382414217,0.03141171485185623,0.01599428057670593,-0.001304023433476686,-2.760812640190125e-05,-0.003946121782064438,-0.002042174339294434,XArbitraryZVertical,-0.01768941125941516,0.01063419093480553,-0.009778459482964838,0.999739096900446,0.0209168829023838,0.03557756543159485,-0.9991480112075806,0,0,0,-1,-1,,,,,,,,,,,,,,,,,,1,0.71
2021-12-13 15:41:50.632 -0500,,,,,,,,,,15881.335673375,0.0232086181640625,0.0321197509765625,-1.00396728515625,15881.330703375,-0.01918557686417994,0.02108807784223389,-0.03526201382068557,0.03399791195988655,0.01386881060898304,0.0002834866754710674,0.0009450186043977737,-0.003012910485267639,-0.004093945026397705,XArbitraryZVertical,-0.01752717561357642,0.01071083005940712,-0.009776498146994604,0.9997411649766348,0.02107340656220913,0.03525470569729805,-0.9991561770439148,0,0,0,-1,-1,,,,,,,,,,,,,,,,,,1,0.71
2021-12-13 15:41:50.642 -0500,,,,,,,,,,15881.345613375,0.02227783203125,0.031158447265625,-1.003326416015625,15881.340643375,-0.01918463102974226,0.02120274329793369,-0.03492761221768891,0.03588103502988815,0.009256249293684959,0.003203775733709335,0.002020386978983879,-0.002800785005092621,-0.004801809787750244,XArbitraryZVertical,-0.01735946066913227,0.01076656648108576,-0.009775285469561818,0.9997435750800211,0.02118822373449802,0.03492050990462303,-0.9991654753684998,0,0,0,-1,-1,,,,,,,,,,,,,,,,,,1,0.71
2021-12-13 15:41:50.652 -0500,,,,,,,,,,15881.355552375,0.0220794677734375,0.0310516357421875,-1.002365112304688,15881.350582375,-0.0191770943946472,0.02122482565523222,-0.03455881328410185,0.03758332133293152,-0.002621183171868324,0.002495641354471445,0.001067265868186951,-0.003393515944480896,-0.004148602485656738,XArbitraryZVertical,-0.01717504097797623,0.01077580615495547,-0.009769784436910598,0.9997466711700083,0.0212105605751276,0.03455193340778351,-0.9991778135299683,0,0,0,-1,-1,,,,,,,,,,,,,,,,,,1,0.71
2021-12-13 15:41:50.662 -0500,,,,,,,,,,15881.365492375,0.021697998046875,0.030853271484375,-1.002761840820312,15881.360522375,-0.01917607381021989,0.02119405859901307,-0.03417670296307062,0.03786642104387283,-0.000608932226896286,-0.000161794014275074,0.0008993633091449738,-0.003118440508842468,-0.003173530101776123,XArbitraryZVertical,-0.01698418825169823,0.01075862062342965,-0.009767016909931382,0.9997501869544902,0.02118009701371193,0.03417005017399788,-0.9991915822029114,0,0,0,-1,-1,,,,,,,,,,,,,,,,,,1,0.71
2021-12-13 15:41:50.671 -0500,,,,,,,,,,15881.375432375,0.0211944580078125,0.0297698974609375,-1.00347900390625,15881.370462375,-0.01918992474890214,0.02123288002566747,-0.03380966171017651,0.03725362569093704,0.006245778873562813,0.001894166227430105,0.0004788395017385483,-0.002949975430965424,-0.003558635711669922,XArbitraryZVertical,-0.01680044823526134,0.0107764166322002,-0.009772352232983108,0.9997530561017398,0.02121915109455585,0.03380322083830833,-0.9992032051086426,0,0,0,-1,-1,,,,,,,,,,,,,,,,,,1,0.71
2021-12-13 15:41:50.682 -0500,,,,,,,,,,15881.385371375,0.021697998046875,0.0294647216796875,-1.002853393554688,15881.380402375,-0.01919177143496376,0.02132950627069626,-0.03341994566435596,0.03772660344839096,0.01070038229227066,0.0004201065748929977,-0.0001215282827615738,-0.003643855452537537,-0.004264712333679199,XArbitraryZVertical,-0.01660515457109114,0.01082289830854743,-0.009772040303053014,0.9997558646646411,0.02131597883999348,0.03341372311115265,-0.9992142915725708,0,0,0,-1,-1,,,,,,,,,,,,,,,,,,1,0.71
2021-12-13 15:41:50.691 -0500,,,,,,,,,,15881.395311375,0.0206146240234375,0.031219482421875,-1.004669189453125,15881.390341375,-0.019190304972482,0.02143552798918002,-0.03306442727563487,0.03251426666975021,0.008758405223488808,0.0003111832775175571,0.0002758204936981201,-0.003593709319829941,-0.003629565238952637,XArbitraryZVertical,-0.01642692962183907,0.01087421157331301,-0.009770312083386566,0.9997581663293108,0.02142217196524143,0.03305840119719505,-0.9992238283157349,0,0,0,-1,-1,,,,,,,,,,,,,,,,,,1,0.71
2021-12-13 15:41:50.701 -0500,,,,,,,,,,15881.405251375,0.022552490234375,0.028106689453125,-1.0028076171875,15881.400281375,-0.01918354323635969,0.02148610458921382,-0.0327610486565152,0.02572453580796719,0.001307545229792595,0.001060330774635077,-0.000858306884765625,-0.001535732299089432,-0.005436480045318604,XArbitraryZVertical,-0.0162750655691944,0.01089801000521765,-0.009765741773943069,0.9997604678976011,0.02147292345762253,0.03275518864393234,-0.9992327094078064,0,0,0,-1,-1,,,,,,,,,,,,,,,,,,1,0.71
2021-12-13 15:41:50.711 -0500,,,,,,,,,,15881.415191375,0.024322509765625,0.027130126953125,-1.0013427734375,15881.410221375,-0.01919114415405839,0.02146373446251469,-0.03255866669696046,0.01403379067778587,-0.004331432282924652,0.0003633815795183182,0.001101771369576454,-0.004446253180503845,-0.003567814826965332,XArbitraryZVertical,-0.01617396644387136,0.01088593655629769,-0.009768289509205171,0.9997622030711916,0.02145071141421795,0.03255291283130646,-0.9992398023605347,0,0,0,-1,-1,,,,,,,,,,,,,,,,,,1,0.71
2021-12-13 15:41:50.730 -0500,,,,,,,,,,15881.425130375,0.0207366943359375,0.027587890625,-1.001419067382812,15881.420161375,-0.01917977714464266,0.02140810374432486,-0.03248226040977886,-0.0007616672664880753,-0.004577873274683952,0.0006340914405882359,0.002927327528595924,-0.005346447229385376,-0.002099275588989258,XArbitraryZVertical,-0.01613610487779831,0.01085767570198488,-0.009761754087232647,0.9997632342058469,0.02139517664909363,0.03247654810547829,-0.9992434978485107,0,0,0,-1,-1,,,,,,,,,,,,,,,,,,1,0.71
2021-12-13 15:41:50.750 -0500,,,,,,,,,,15881.435070375,0.02191162109375,0.028289794921875,-1.003890991210938,15881.430100375,-0.01917912399835314,0.02140664061322705,-0.03258763356147766,-0.02019581943750381,0.003000151365995407,0.0009307675063610077,-0.0006569530814886093,-0.004994001239538193,-0.002178966999053955,XArbitraryZVertical,-0.01618878962364419,0.01085743487078781,-0.009761971257119119,0.9997623950103887,0.02139364182949066,0.0325818657875061,-0.9992401003837585,0,0,0,-1,-1,,,,,,,,,,,,,,,,,,1,0.71
2021-12-13 15:41:50.752 -0500,,,,,,,,,,15881.445010375,0.021575927734375,0.027496337890625,-1.001190185546875,15881.440040375,-0.01918731734685095,0.02144778707691254,-0.03281930188311454,-0.02859303168952465,0.002069741487503052,-0.001612684223800898,0.0004770196974277496,-0.004523642361164093,-0.004659354686737061,XArbitraryZVertical,-0.01630435071108586,0.01087915999536307,-0.009767623544989579,0.9997602496353603,0.02143459394574165,0.032813411206007,-0.9992316365242004,0,0,0,-1,-1,,,,,,,,,,,,,,,,,,1,0.71
2021-12-13 15:41:50.754 -0500,,,,,,,,,,15881.454950375,0.02252197265625,0.02911376953125,-1.0037841796875,15881.449980375,-0.01918373674818422,0.02144671691710395,-0.033124374711873,-0.03449220210313797,-0.002350573427975178,0.0006350236944854259,0.0001426097005605698,-0.005622006952762604,-0.001968562602996826,XArbitraryZVertical,-0.01645687739059099,0.01088003295434146,-0.009767437345395362,0.9997576303574056,0.02143330872058868,0.03311831876635551,-0.9992215633392334,0,0,0,-1,-1,,,,,,,,,,,,,,,,,,1,0.71
2021-12-13 15:41:50.761 -0500,,,,,,,,,,15881.464889375,0.023284912109375,0.0300750732421875,-1.003067016601562,15881.459919375,-0.01918600675636961,0.02138102358608765,-0.03351107435469013,-0.04058577865362167,-0.01126780081540346,-0.002021346241235733,0.001154575496912003,-0.004391059279441833,-0.004574060440063477,XArbitraryZVertical,-0.01665048867010039,0.01084903248580081,-0.00977006682879572,0.999754773258658,0.02136739157140255,0.03350480273365974,-0.9992101192474365,0,0,0,-1,-1,,,,,,,,,,,,,,,,,,1,0.71
2021-12-13 15:41:50.771 -0500,,,,,,,,,,15881.474829375,0.0218353271484375,0.031219482421875,-1.00439453125,15881.469859375,-0.01919661686858961,0.02124132615572569,-0.03390911972276822,-0.04202575236558914,-0.01464495528489351,-0.002511900383979082,0.002057384699583054,-0.003827575594186783,-0.00386732816696167,XArbitraryZVertical,-0.01685008862213339,0.01078116371359004,-0.009776288903867919,0.9997520793920743,0.0212275180965662,0.03390262275934219,-0.9991996884346008,0,0,0,-1,-1,,,,,,,,,,,,,,,,,,1,0.71
2021-12-13 15:41:50.781 -0500,,,,,,,,,,15881.484769375,0.021331787109375,0.0318145751953125,-1.0020751953125,15881.479799375,-0.01920403916400001,0.02111146742011531,-0.03430660397311056,-0.0397343635559082,-0.01174400746822357,-0.001895511988550425,0.0007378421723842621,-0.003080416470766068,-0.005205631256103516,XArbitraryZVertical,-0.01704937749135143,0.01071818546269538,-0.009780970275280375,0.9997492985566026,0.02109747752547264,0.03429987654089928,-0.9991888999938965,0,0,0,-1,-1,,,,,,,,,,,,,,,,,,1,0.71
2021-12-13 15:41:50.791 -0500,,,,,,,,,,15881.494708375,0.022216796875,0.029449462890625,-1.003448486328125,15881.489739375,-0.01922010352185421,0.02106496293911187,-0.03470323343701439,-0.04265079647302628,-0.001947569660842419,-0.001069665653631091,0.0002810563892126083,-0.002881716936826706,-0.002898991107940674,XArbitraryZVertical,-0.01724778295503082,0.01069694439863512,-0.009790658547524637,0.999746114774561,0.02105072326958179,0.03469626978039742,-0.9991762042045593,0,0,0,-1,-1,,,,,,,,,,,,,,,,,,1,0.71
2021-12-13 15:41:50.801 -0500,,,,,,,,,,15881.504648375,0.022064208984375,0.0329742431640625,-1.003433227539062,15881.499678375,-0.01921736272300681,0.02106607355056174,-0.03509386319213924,-0.03977964073419571,0.0005294699221849442,0.0006394181400537491,0.001165242865681648,-0.005637224763631821,-0.004285931587219238,XArbitraryZVertical,-0.01744305767932509,0.01069931624735262,-0.009791322064037338,0.9997427026715037,0.02105154469609261,0.03508666157722473,-0.9991625547409058,0,0,0,-1,-1,,,,,,,,,,,,,,,,,,1,0.71
2021-12-13 15:41:50.811 -0500,,,,,,,,,,15881.514588375,0.022735595703125,0.0320281982421875,-1.004898071289062,15881.509618375,-0.01921818366785439,0.02104755705678403,-0.03545812834060086,-0.03341175615787506,-0.006658402271568775,-0.00267728278413415,0.001031426712870598,-0.002476483583450317,-0.004283130168914795,XArbitraryZVertical,-0.01762523017665153,0.01069178357600456,-0.009793456469901514,0.9997395578523923,0.02103277482092381,0.03545069694519043,-0.9991500973701477,0,0,0,-1,-1,,,,,,,,,,,,,,,,,,1,0.71
2021-12-13 15:41:50.820 -0500,,,,,,,,,,15881.524528375,0.0223236083984375,0.0316009521484375,-1.002090454101562,15881.519558375,-0.01922083319892397,0.02096220832272828,-0.0357651540459207,-0.02809928171336651,-0.01261669211089611,0.001971531193703413,0.001788318157196045,-0.003729362040758133,-0.00575709342956543,XArbitraryZVertical,-0.01777910733221006,0.01065059005422252,-0.009795611141577603,0.9997372472563846,0.02094726823270321,0.03575753048062325,-0.9991409182548523,0,0,0,-1,-1,,,,,,,,,,,,,,,,,,1,0.71
2021-12-13 15:41:50.831 -0500,,,,,,,,,,15881.534467375,0.07470703125,-0.117828369140625,-0.9968414306640625,15881.529498375,-0.01909282326021762,0.02081816862612444,-0.03603524350720946,-0.03952290862798691,-0.01675125025212765,0.05006182938814163,0.001520451158285141,-0.004426520317792892,-0.002956211566925049,XArbitraryZVertical,-0.01791549953711038,0.01057871474180076,-0.009731724676957338,0.9997362005057222,0.02080315165221691,0.0360274463891983,-0.9991342425346375,0,0,0,-1,-1,,,,,,,,,,,,,,,,,,1,0.71
2021-12-13 15:41:50.840 -0500,,,,,,,,,,15881.544407375,0.1059112548828125,-0.1815032958984375,-1.008926391601562,15881.539437375,-0.01305795286952151,0.01995962219148241,-0.03872956496414414,-0.4894405603408813,-0.2252428531646729,1.127783894538879,0.05476369336247444,-0.1565482765436172,0.002209663391113281,XArbitraryZVertical,-0.01929705163550192,0.01010397908916011,-0.006720618537156242,0.9997401205054366,0.01994333043694496,0.03871988505125046,-0.9990510940551758,0,0,0,-1,-1,,,,,,,,,,,,,,,,,,1,0.71
2021-12-13 15:41:50.850 -0500,,,,,,,,,,15881.554347375,0.039031982421875,-0.124603271484375,-0.99615478515625,15881.549377375,0.003169251321540386,0.01802895421761827,-0.04335163735050999,-0.4933119714260101,-0.2374489158391953,2.115023612976074,0.08790020644664764,-0.2248413860797882,-0.01002824306488037,XArbitraryZVertical,-0.0216874956767707,0.008977882642672139,0.001388810456005373,0.9997234698325734,0.01801103912293911,0.04333806037902832,-0.9988980889320374,0,0,0,-1,-1,,,,,,,,,,,,,,,,,,1,0.71
2021-12-13 15:41:50.860 -0500,,,,,,,,,,15881.564287375,-0.0393218994140625,-0.0276947021484375,-0.976226806640625,15881.559317375,0.02836272678088645,0.01847143042556129,-0.04751537107472719,-0.4243009686470032,0.118927888572216,2.919999599456787,0.02058244124054909,-0.1721007972955704,0.002546191215515137,XArbitraryZVertical,-0.02388298053337106,0.008895190118800923,0.01395690804846201,0.9995777621238017,0.01844953373074532,0.04749749228358269,-0.9987009763717651,0,0,0,-1,-1,,,,,,,,,,,,,,,,,,1,0.71
2021-12-13 15:41:50.870 -0500,1639428110.839119,33.99212706313543,-81.03107892875451,71.15248,-1,-1,14.25327205657959,35,-9999,15881.574226375,-0.0821380615234375,0.0372314453125,-0.99786376953125,15881.569256375,0.06059514678642833,0.02293235843088852,-0.05075700028130785,-0.3706981837749481,0.4310128092765808,3.56380033493042,-0.06222272664308548,-0.0784299373626709,0.02222275733947754,XArbitraryZVertical,-0.02570968654572306,0.01068831866418104,0.02999036839430216,0.9991623632481322,0.02290081791579723,0.05073520913720131,-0.9984495639801025,0,0,0,-1,-1,,,,,,,,,,,,,,,,,,1,0.71
2021-12-13 15:41:50.880 -0500,,,,,,,,,,15881.584166375,-0.0382080078125,0.05950927734375,-1.027175903320312,15881.579196375,0.09987919862472479,0.02897148467582373,-0.05306391572261499,-0.2820724546909332,0.3415645658969879,4.356697559356689,-0.1110647320747375,-0.01580759882926941,0.0003096461296081543,XArbitraryZVertical,-0.0272158213917264,0.01313793402209059,0.04951223941920975,0.9983162515023253,0.02892665937542915,0.05303901806473732,-0.9981734156608582,0,0,0,-1,-1,,,,,,,,,,,,,,,,,,1,0.71
2021-12-13 15:41:50.890 -0500,,,,,,,,,,15881.594106375,0.019256591796875,0.10321044921875,-1.03839111328125,15881.589136375,0.1481789774605516,0.03303563952519514,-0.05454051566887987,-0.3454562127590179,-0.07193431258201599,5.343069553375244,-0.0711885392665863,0.004995767027139664,-0.02920764684677124,XArbitraryZVertical,-0.02841053314165485,0.0144475659925983,0.07353497632608288,0.9967831696083898,0.03298051655292511,0.05451348051428795,-0.9979681968688965,0,0,0,-1,-1,,,,,,,,,,,,,,,,,,1,0.71
2021-12-13 15:41:50.900 -0500,,,,,,,,,,15881.604045375,0.1442718505859375,0.1409454345703125,-1.039794921875,15881.599076375,0.2048119078792549,0.0321548446854857,-0.05613868861474201,-0.3017531931400299,-0.6833165287971497,6.038839817047119,-0.0128420777618885,0.0471012182533741,-0.04048258066177368,XArbitraryZVertical,-0.02955784690296828,0.01311750663684666,0.1017247454887867,0.9942868329679241,0.03209865838289261,0.05610920488834381,-0.9979085326194763,0,0,0,-1,-1,,,,,,,,,,,,,,,,,,1,0.71
2021-12-13 15:41:50.910 -0500,,,,,,,,,,15881.613985375,0.30303955078125,0.120452880859375,-1.039306640625,15881.609015375,0.2724485100381527,0.0265342957060768,-0.05550719373814533,-0.01158794946968555,-1.225040078163147,7.626478672027588,0.1177815198898315,0.08546671271324158,-0.0416865348815918,XArbitraryZVertical,-0.02929150962550337,0.009370575933275237,0.1353743393874398,0.9903171009395362,0.02649032138288021,0.05547869578003883,-0.9981083869934082,0,0,0,-1,-1,,,,,,,,,,,,,,,,,,1,0.71
2021-12-13 15:41:50.920 -0500,,,,,,,,,,15881.623925375,0.195831298828125,0.0287933349609375,-1.016082763671875,15881.618955375,0.3546416548972292,0.01756761553948855,-0.05202338255750465,0.506512463092804,-1.306883454322815,8.705497741699219,0.2854965925216675,0.06845293939113617,-0.0408136248588562,XArbitraryZVertical,-0.02714880577200856,0.004055453127487799,0.1761016965432989,0.9839892082064695,0.01754294522106647,0.05199991911649704,-0.9984930157661438,0,0,0,-1,-1,,,,,,,,,,,,,,,,,,1,0.71
2021-12-13 15:41:50.930 -0500,,,,,,,,,,15881.633865375,0.17840576171875,0.0043182373046875,-0.967926025390625,15881.628895375,0.4416339948545753,0.0136911382300167,-0.04064365635515361,1.428460836410522,-0.2702000439167023,8.783727645874023,0.1821518838405609,-0.01183915510773659,-0.01700222492218018,XArbitraryZVertical,-0.02132560366411662,0.002227303768097905,0.2188407770743724,0.9755249555275367,0.01367940381169319,0.0406324677169323,-0.9990805387496948,0,0,0,-1,-1,,,,,,,,,,,,,,,,,,1,0.71
2021-12-13 15:41:50.940 -0500,,,,,,,,,,15881.643804375,0.1715545654296875,0.0141143798828125,-0.984527587890625,15881.638835375,0.5288618745376185,0.01846843393402834,-0.02271452894983925,1.886442422866821,0.6485131978988647,8.805751800537109,0.1599431186914444,-0.0183943584561348,0.03164553642272949,XArbitraryZVertical,-0.01337506356784031,0.005944402315987446,0.2612307978806206,0.9651654188254961,0.01846262067556381,0.02271257527172565,-0.9995715618133545,0,0,0,-1,-1,,,,,,,,,,,,,,,,,,1,0.71
2021-12-13 15:41:50.950 -0500,,,,,,,,,,15881.653744375,0.1432342529296875,0.048980712890625,-0.9449310302734375,15881.648774375,0.6158893476764198,0.02945123198946062,-0.004270727247231753,1.310698986053467,1.253468871116638,8.781889915466309,0.1421078443527222,0.009843649342656136,0.0150296688079834,XArbitraryZVertical,-0.006497862356594591,0.01338520273934084,0.3030371093855582,0.9528626399447284,0.02944670617580414,0.004270714242011309,-0.9995572566986084,0,0,0,-1,-1,,,,,,,,,,,,,,,,,,1,0.71
2021-12-13 15:41:50.959 -0500,,,,,,,,,,15881.663684375,0.145355224609375,0.0553741455078125,-0.9547882080078125,15881.658714375,0.7025883881676533,0.04118116071478458,0.006206733362835874,0.1186765804886818,1.023836731910706,8.71877384185791,0.1020655035972595,0.05518739297986031,0.05420190095901489,XArbitraryZVertical,-0.00417174072243866,0.02039929781012344,0.3440986418608341,0.9387026126295916,0.04116873070597649,-0.006206693593412638,-0.9991329312324524,0,0,0,-1,-1,,,,,,,,,,,,,,,,,,1,0.71
2021-12-13 15:41:50.969 -0500,,,,,,,,,,15881.673624375,0.1301116943359375,0.0140533447265625,-0.9823150634765625,15881.668654375,0.7890684975744721,0.04692320345826662,0.00522886900463037,-1.041943073272705,0.1904168128967285,8.662094116210938,0.09844985604286194,0.06060297787189484,0.04409748315811157,XArbitraryZVertical,-0.006604355873875605,0.02266177320148775,0.3843277799677887,0.9228949063773451,0.04690534621477127,-0.005228845402598381,-0.9988856315612793,0,0,0,-1,-1,,,,,,,,,,,,,,,,,,1,0.71
2021-12-13 15:41:50.979 -0500,,,,,,,,,,15881.683563375,0.096527099609375,0.0098114013671875,-1.042861938476562,15881.678593375,0.875556892030771,0.04345656703695627,-0.005288666387058591,-1.802159190177917,-0.875251829624176,8.63514232635498,0.08666938543319702,0.008764691650867462,0.01672691106796265,XArbitraryZVertical,-0.01160487430621791,0.01855685320769017,0.4237748816769188,0.9055030551519719,0.04344228282570839,0.005288641899824142,-0.9990419149398804,0,0,0,-1,-1,,,,,,,,,,,,,,,,,,1,0.71
2021-12-13 15:41:50.990 -0500,,,,,,,,,,15881.693503375,0.0655517578125,0.0126953125,-1.067520141601562,15881.688533375,0.962042629071414,0.03146953640460845,-0.02075193281654051,-1.892546653747559,-1.681799173355103,8.641458511352539,0.06506951153278351,-0.01093905046582222,-0.04357224702835083,XArbitraryZVertical,-0.01647677469650799,0.00914778287512724,0.4624579382343326,0.8864408707886144,0.03145756945014,0.02075044251978397,-0.9992896914482117,0,0,0,-1,-1,,,,,,,,,,,,,,,,,,1,0.71
2021-12-13 15:41:50.999 -0500,,,,,,,,,,15881.703443375,0.0219268798828125,0.0513458251953125,-1.0540771484375,15881.698473375,1.048270414536541,0.01497671710179991,-0.03508390026650861,-1.344703197479248,-2.035760402679443,8.632698059082031,0.05058479309082031,-0.02238139882683754,-0.06824761629104614,XArbitraryZVertical,-0.01893290888254646,-0.00229638593628196,0.5002597486697729,0.8656652990990873,0.01496694143861532,0.03507670387625694,-0.9992725253105164,0,0,0,-1,-1,,,,,,,,,,,,,,,,,,1,0.71
2021-12-13 15:41:51.009 -0500,,,,,,,,,,15881.713383375,0.014190673828125,0.09197998046875,-0.979736328125,15881.708413375,1.134181363215428,1.822518862623622e-05,-0.04315618739735017,-0.4492869973182678,-1.592887043952942,8.628481864929199,0.02190864644944668,0.008203025907278061,-0.05500823259353638,XArbitraryZVertical,-0.01820389948668003,-0.01158274502155593,0.5370551873882833,0.8432711349610514,1.820822035369929e-05,0.04314279183745384,-0.9990689158439636,0,0,0,-1,-1,,,,,,,,,,,,,,,,,,1,0.71
2021-12-13 15:41:51.019 -0500,,,,,,,,,,15881.723322375,0.002410888671875,0.1234588623046875,-0.9530487060546875,15881.718352375,1.220043578359874,-0.007653704268072273,-0.04327362364579802,0.4620720148086548,-0.6890506148338318,8.634494781494141,0.02183711156249046,0.0487198606133461,0.019298255443573,XArbitraryZVertical,-0.01554095745702895,-0.01553023788922287,0.5728149047521509,0.8193901746812493,-0.007646464742720127,0.0432601198554039,-0.999034583568573,0,0,0,-1,-1,,,,,,,,,,,,,,,,,,1,0.71
2021-12-13 15:41:51.029 -0500,,,,,,,,,,15881.733262375,0.0373077392578125,0.1280517578125,-0.932861328125,15881.728292375,1.306166606443107,-0.005857366799767865,-0.03607995096703675,1.061701655387878,0.4047114551067352,8.671967506408691,0.008264384232461452,0.08738673478364944,0.04628336429595947,XArbitraryZVertical,-0.01254747582747024,-0.0132867555772293,0.6075785809484701,0.7940492426168128,-0.005853521171957254,0.03607212379574776,-0.999332070350647,0,0,0,-1,-1,,,,,,,,,,,,,,,,,,1,0.71
2021-12-13 15:41:51.039 -0500,,,,,,,,,,15881.743202375,0.07537841796875,0.1140594482421875,-0.9354095458984375,15881.738232375,1.392615665552449,0.006180931845176305,-0.02465796042016449,1.150916576385498,1.480088353157043,8.71251106262207,0.03112869895994663,0.1033962965011597,0.06681561470031738,XArbitraryZVertical,-0.01144073881906645,-0.005536570352816105,0.6413083431955354,0.7671779121447531,0.006179013755172491,0.02465546131134033,-0.9996768832206726,0,0,0,-1,-1,,,,,,,,,,,,,,,,,,1,0.71
