loggingTime(txt),locationTimestamp_since1970(s),locationLatitude(WGS84),locationLongitude(WGS84),locationAltitude(m),locationSpeed(m/s),locationCourse(°),locationVerticalAccuracy(m),locationHorizontalAccuracy(m),locationFloor(Z),accelerometerTimestamp_sinceReboot(s),accelerometerAccelerationX(G),accelerometerAccelerationY(G),accelerometerAccelerationZ(G),motionTimestamp_sinceReboot(s),motionYaw(rad),motionRoll(rad),motionPitch(rad),motionRotationRateX(rad/s),motionRotationRateY(rad/s),motionRotationRateZ(rad/s),motionUserAccelerationX(G),motionUserAccelerationY(G),motionUserAccelerationZ(G),motionAttitudeReferenceFrame(txt),motionQuaternionX(R),motionQuaternionY(R),motionQuaternionZ(R),motionQuaternionW(R),motionGravityX(G),motionGravityY(G),motionGravityZ(G),motionMagneticFieldX(µT),motionMagneticFieldY(µT),motionMagneticFieldZ(µT),motionHeading(°),motionMagneticFieldCalibrationAccuracy(Z),activityTimestamp_sinceReboot(s),activity(txt),activityActivityConfidence(Z),activityActivityStartDate(txt),pedometerStartDate(txt),pedometerNumberofSteps(N),pedometerAverageActivePace(s/m),pedometerCurrentPace(s/m),pedometerCurrentCadence(steps/s),pedometerDistance(m),pedometerFloorAscended(N),pedometerFloorDescended(N),pedometerEndDate(txt),altimeterTimestamp_sinceReboot(s),altimeterReset(bool),altimeterRelativeAltitude(m),altimeterPressure(kPa),batteryState(N),batteryLevel(R)
2021-12-13 15:36:56.107 -0500,1639427815.764321,33.9923034547002,-81.03069871114766,74.25806,-1,-1,24.34298515319824,40,-9999,15723.05153825,0.0249786376953125,-0.0255126953125,-1.023223876953125,15723.04159725,0.01921977511566415,0.02846500680501785,0.03306707721066567,0.08603236824274063,0.03896118700504303,0.02790861204266548,-0.02011431381106377,-0.01022815704345703,0.01735901832580566,XArbitraryZVertical,0.01639359955786229,0.01438827970942589,0.009842736756620524,0.9997136756778189,0.02844560332596302,-0.03306104987859726,-0.9990484714508057,0,0,0,-1,-1,15713.487420625,unknown,2,2021-12-13 15:36:46.493 -0500,,,,,,,,,,661120614.1273427,0,-0.01999998,101.8633,1,0.71
2021-12-13 15:36:56.123 -0500,,,,,,,,,,15723.06147825,0.03375244140625,-0.037841796875,-1.024490356445312,15723.05153825,0.01936286668216145,0.0287281081047545,0.03388342882599783,0.05498310551047325,0.04365767538547516,0.001365420408546925,-0.01265543326735497,0.007189303636550903,-0.02950501441955566,XArbitraryZVertical,0.01679932387172248,0.01452481773009622,0.009922213899171601,0.9997041916283539,0.02870767004787922,-0.0338769443333149,-0.9990136027336121,0,0,0,-1,-1,,,,,,,,,,,,,,,,,,1,0.71
2021-12-13 15:36:56.132 -0500,,,,,,,,,,15723.07141825,0.035400390625,-0.042999267578125,-1.009353637695312,15723.06147825,0.01919338978649378,0.02897763315162808,0.03418822569601412,0.01834599860012531,-0.003196318633854389,-0.02912777289748192,-0.003978017717599869,0.008668847382068634,-0.0242277979850769,XArbitraryZVertical,0.01695168077613765,0.01464954421970724,0.009841779137483544,0.9997005993372414,0.02895664609968662,-0.03418156504631042,-0.9989960789680481,0,0,0,-1,-1,,,,,,,,,,,,,,,,,,1,0.71
2021-12-13 15:36:56.134 -0500,,,,,,,,,,15723.08135825,0.0364532470703125,-0.049530029296875,-0.99932861328125,15723.07141825,0.01881721040030757,0.02880346911529973,0.03419690551019235,-0.01696538738906384,-0.03878707066178322,-0.04112051799893379,0.004969784989953041,-0.003651577979326248,-0.02548956871032715,XArbitraryZVertical,0.01695961552511821,0.01455933946335742,0.009652331164116609,0.9997036070532852,0.02878264896571636,-0.03419024124741554,-0.9990007877349854,0,0,0,-1,-1,,,,,,,,,,,,,,,,,,1,0.71
2021-12-13 15:36:56.135 -0500,,,,,,,,,,15723.09129925,0.0351409912109375,-0.052734375,-1.0009765625,15723.08135825,0.01842253429465689,0.02837253152116476,0.03386849667724486,-0.02736103534698486,-0.05923052504658699,-0.03221291303634644,0.007047927007079124,-0.009137269109487534,-0.01032936573028564,XArbitraryZVertical,0.01680036811104589,0.01433911463475302,0.009449093391865896,0.9997113934807466,0.02835245616734028,-0.03386202082037926,-0.9990242719650269,0,0,0,-1,-1,,,,,,,,,,,,,,,,,,1,0.71
2021-12-13 15:36:56.136 -0500,,,,,,,,,,15723.10123925,0.1159820556640625,-0.0727386474609375,-1.004638671875,15723.09129925,0.01825498940826718,0.02789052827928546,0.03359281594366192,0.008484046906232834,-0.04303078353404999,-0.00112849660217762,0.008582057431340218,-0.01594355329871178,-0.0002814531326293945,XArbitraryZVertical,0.01666602342635622,0.01409554866240824,0.009359394724604352,0.9997179806628024,0.02787117846310139,-0.03358649834990501,-0.9990471005439758,0,0,0,-1,-1,,,,,,,,,,,,,,,,,,1,0.71
2021-12-13 15:36:56.137 -0500,,,,,,,,,,15723.11117925,0.030242919921875,-0.0252685546875,-0.970703125,15723.10123925,0.01702173631420253,0.02747611270068744,0.03372654283214378,0.03642673045396805,-0.1773322373628616,-0.15362948179245,0.007683949545025826,-0.01901425048708916,-0.001922488212585449,XArbitraryZVertical,0.016743368226439,0.01387867165243502,0.008740393684986598,0.9997253467353805,0.02745703235268593,-0.03372015058994293,-0.9990540742874146,0,0,0,-1,-1,,,,,,,,,,,,,,,,,,1,0.71
2021-12-13 15:36:56.138 -0500,,,,,,,,,,15723.12111925,0.0110015869140625,-0.036834716796875,-0.9889678955078125,15723.11117925,0.01679838547275702,0.02720302369917537,0.03413806878915261,0.004094890784472227,-0.02789187803864479,0.0496586486697197,0.08879822492599487,-0.03860722854733467,-0.005591034889221191,XArbitraryZVertical,0.01695180553997697,0.01374197651026231,0.008629232256076435,0.9997245687700773,0.02718382142484188,-0.03413143754005432,-0.999047577381134,0,0,0,-1,-1,,,,,,,,,,,,,,,,,,1,0.71
2021-12-13 15:36:56.139 -0500,,,,,,,,,,15723.13105925,0.0242919921875,-0.0292816162109375,-0.9850616455078125,15723.12111925,0.01703026423270278,0.02679226796697051,0.03444571835006525,0.04079484939575195,0.01849033497273922,-0.01165344286710024,0.003469739109277725,0.009170331060886383,0.02834504842758179,XArbitraryZVertical,0.01710579136005496,0.01353989488000913,0.008743696237631472,0.9997236869804664,0.02677317149937153,-0.03443890810012817,-0.999048113822937,0,0,0,-1,-1,,,,,,,,,,,,,,,,,,1,0.71
2021-12-13 15:36:56.148 -0500,,,,,,,,,,15723.14100025,0.0151824951171875,-0.0311279296875,-0.9977569580078125,15723.13105925,0.01705723946933375,0.02660518334275158,0.03443887314875565,-0.003099905326962471,-0.01796833984553814,0.01292779948562384,-0.01558469235897064,-0.002402674406766891,0.01008546352386475,XArbitraryZVertical,0.01710300618512538,0.01344658069118684,0.008755534992098989,0.9997248887993452,0.0265862699598074,-0.0344320647418499,-0.9990533590316772,0,0,0,-1,-1,,,,,,,,,,,,,,,,,,1,0.71
2021-12-13 15:36:56.158 -0500,,,,,,,,,,15723.15094025,0.020782470703125,-0.031890869140625,-0.9906768798828125,15723.14100025,0.01699268660918343,0.02639955148686065,0.0344294864670702,0.02383503876626492,-0.01725441403687,-0.018422931432724,-0.002088857814669609,0.005141045898199081,0.01399749517440796,XArbitraryZVertical,0.01709964507880532,0.01334320223938537,0.008721447720817246,0.9997266192450939,0.02638084068894386,-0.03442268446087837,-0.9990591406822205,0,0,0,-1,-1,,,,,,,,,,,,,,,,,,1,0.71
2021-12-13 15:36:56.168 -0500,,,,,,,,,,15723.16088025,0.019378662109375,-0.034515380859375,-0.994842529296875,15723.15094025,0.0168958672291846,0.02636772319329417,0.03463840362109602,0.008954893797636032,-0.01285061147063971,-0.007539923768490553,-0.01116636581718922,0.003503523766994476,0.001295804977416992,XArbitraryZVertical,0.01720485821562726,0.01332732211450248,0.00867414009168245,0.9997255092578153,0.02634885348379612,-0.03463147580623627,-0.9990527629852295,0,0,0,-1,-1,,,,,,,,,,,,,,,,,,1,0.71
2021-12-13 15:36:56.178 -0500,,,,,,,,,,15723.17082025,0.022064208984375,-0.03448486328125,-1.002761840820312,15723.16088025,0.01678757994368127,0.02631020479101802,0.03476738144071015,-0.01499864272773266,-0.03217846900224686,-0.01350873336195946,-0.005508808419108391,0.002869486808776855,0.008372902870178223,XArbitraryZVertical,0.0172702984262283,0.01329816510693579,0.008620354871168266,0.9997252771137348,0.02629127167165279,-0.03476037830114365,-0.9990497827529907,0,0,0,-1,-1,,,,,,,,,,,,,,,,,,1,0.71
2021-12-13 15:36:56.187 -0500,,,,,,,,,,15723.18076125,0.023529052734375,-0.032379150390625,-1.009796142578125,15723.17082025,0.01662659490686924,0.02609354085838753,0.03483311654559615,-0.02810459211468697,-0.05003229901194572,-0.01798657327890396,-0.006696099415421486,0.0003106668591499329,0.00421065092086792,XArbitraryZVertical,0.01730515228909286,0.01318873810844735,0.008538437198551328,0.9997268405082234,0.02607475221157074,-0.03482607379555702,-0.9990531802177429,0,0,0,-1,-1,,,,,,,,,,,,,,,,,,1,0.71
2021-12-13 15:36:56.197 -0500,,,,,,,,,,15723.19070125,0.0228729248046875,-0.034454345703125,-1.012313842773438,15723.18076125,0.01640851283624521,0.02581867682633176,0.03478886452644905,-0.04008082672953606,-0.04150745272636414,-0.03269334882497787,-0.003735987469553947,0.0002969652414321899,-0.003699958324432373,XArbitraryZVertical,0.01728563000818422,0.01304928100884721,0.008426765719479885,0.9997298673976046,0.0258001871407032,-0.03478184714913368,-0.9990618228912354,0,0,0,-1,-1,,,,,,,,,,,,,,,,,,1,0.71
2021-12-13 15:36:56.207 -0500,,,,,,,,,,15723.20064125,0.02728271484375,-0.04644775390625,-0.995758056640625,15723.19070125,0.01596367852636213,0.02717949125889761,0.03524645500176771,-0.01063292287290096,-0.03738994151353836,-0.04358354583382607,-0.003630224615335464,0.002859987318515778,-0.01078629493713379,XArbitraryZVertical,0.01751167634165226,0.0137274278397727,0.008219245640113743,0.9997186653247985,0.02715926617383957,-0.03523915633559227,-0.9990097880363464,0,0,0,-1,-1,,,,,,,,,,,,,,,,,,1,0.71
2021-12-13 15:36:56.217 -0500,,,,,,,,,,15723.21058125,0.0228271484375,-0.0469512939453125,-0.9871826171875,15723.20064125,0.01557809594714792,0.02691411018562998,0.03502779593500908,0.003737760707736015,-0.03666786104440689,-0.0287003368139267,-0.004021437838673592,0.0005662664771080017,-0.01328915357589722,XArbitraryZVertical,0.0174060889166701,0.01359057336103088,0.00802272897495877,0.9997239097130182,0.02689435333013535,-0.03502063453197479,-0.9990246295928955,0,0,0,-1,-1,,,,,,,,,,,,,,,,,,1,0.71
2021-12-13 15:36:56.228 -0500,,,,,,,,,,15723.22052225,0.02520751953125,-0.04168701171875,-1.001388549804688,15723.21058125,0.01547861725603951,0.02637360646377504,0.03521889302348072,0.02670379728078842,0.001232916489243507,0.004249357618391514,0.0009285099804401398,-0.01123616471886635,0.003274261951446533,XArbitraryZVertical,0.01750444182520782,0.01332024691436366,0.007969545594477132,0.9997262537335873,0.02635419555008411,-0.03521161153912544,-0.9990323185920715,0,0,0,-1,-1,,,,,,,,,,,,,,,,,,1,0.71
2021-12-13 15:36:56.237 -0500,,,,,,,,,,15723.23046225,0.0294647216796875,-0.0416717529296875,-1.006423950195312,15723.22052225,0.01562863341677427,0.02658933593482042,0.03550945822559317,0.0552145354449749,0.04710513725876808,0.02359429374337196,-0.00374230369925499,-0.01144931465387344,0.0118337869644165,XArbitraryZVertical,0.01764781741973533,0.01343049553750229,0.008048331932149839,0.9997216438725103,0.02656944282352924,-0.03550199791789055,-0.9990163445472717,0,0,0,-1,-1,,,,,,,,,,,,,,,,,,1,0.71
2021-12-13 15:36:56.247 -0500,,,,,,,,,,15723.24040225,0.0300140380859375,-0.0477447509765625,-1.018692016601562,15723.23046225,0.01587380028654997,0.02677370153218953,0.03597310411968738,0.05104375630617142,0.03654010966420174,0.02282916754484177,-0.001545673236250877,-0.005721691995859146,-0.002393662929534912,XArbitraryZVertical,0.01787717478320552,0.0135265988750182,0.008175577074479135,0.9997153064547086,0.02675318345427513,-0.03596534579992294,-0.9989948868751526,0,0,0,-1,-1,,,,,,,,,,,,,,,,,,1,0.71
2021-12-13 15:36:56.257 -0500,,,,,,,,,,15723.25034225,0.0233917236328125,-0.0409393310546875,-1.019546508789062,15723.24040225,0.01602178992304523,0.02677374143265763,0.03631884823088227,0.03439447283744812,-0.01072587352246046,0.0105338841676712,0.002711823210120201,-0.005360908806324005,-0.007441520690917969,XArbitraryZVertical,0.01804899711284171,0.01352928452658426,0.008251839982298174,0.9997115380111389,0.02675288915634155,-0.03631086274981499,-0.9989823698997498,0,0,0,-1,-1,,,,,,,,,,,,,,,,,,1,0.71
2021-12-13 15:36:56.267 -0500,,,,,,,,,,15723.26028225,0.0183258056640625,-0.035491943359375,-1.004074096679688,15723.25034225,0.01617369476741643,0.02631675512779652,0.03667781223500314,0.04332352057099342,-0.04103637486696243,0.01891645044088364,0.00371800921857357,-0.01107518747448921,-0.01971060037612915,XArbitraryZVertical,0.01822930243499087,0.01330363553129328,0.008325980852933804,0.999710706011162,0.02629601955413818,-0.03666958957910538,-0.9989814162254333,0,0,0,-1,-1,,,,,,,,,,,,,,,,,,1,0.71
2021-12-13 15:36:56.277 -0500,,,,,,,,,,15723.27022325,0.0175628662109375,-0.0294647216796875,-0.9981842041015625,15723.26028225,0.01633874259751572,0.02588519281573722,0.0370670417962463,0.03927977755665779,-0.02579686790704727,0.01581133902072906,-0.002472806721925735,-0.003880798816680908,-0.02056819200515747,XArbitraryZVertical,0.01842457905295816,0.01309096495179768,0.008407036920944327,0.9997091841860987,0.02586452290415764,-0.03705855458974838,-0.998978316783905,0,0,0,-1,-1,,,,,,,,,,,,,,,,,,1,0.71
2021-12-13 15:36:56.287 -0500,,,,,,,,,,15723.28016325,0.022247314453125,-0.0367279052734375,-1.0048828125,15723.27022325,0.01637438900023346,0.02568479006068227,0.03719618250149826,0.01687327027320862,-0.001489398069679737,-0.009619452990591526,-0.007338404655456543,0.001695640385150909,-0.005095422267913818,XArbitraryZVertical,0.01848974199234963,0.01299163438598893,0.008423828133840985,0.9997091185146474,0.0256642010062933,-0.0371876060962677,-0.9989786744117737,0,0,0,-1,-1,,,,,,,,,,,,,,,,,,1,0.71
2021-12-13 15:36:56.297 -0500,,,,,,,,,,15723.29010325,0.032501220703125,-0.04296875,-1.008102416992188,15723.28016325,0.01623441987226171,0.02566809291270584,0.03728212456501557,0.01528149843215942,0.0117194801568985,-0.01449676603078842,-0.008084580302238464,0.007808741182088852,0.0007917284965515137,XArbitraryZVertical,0.01853367919500262,0.01298233234436469,0.00835425419720601,0.9997090326539337,0.02564743906259537,-0.03727348893880844,-0.998975932598114,0,0,0,-1,-1,,,,,,,,,,,,,,,,,,1,0.71
2021-12-13 15:36:56.307 -0500,,,,,,,,,,15723.30004325,0.0298919677734375,-0.041656494140625,-1.013717651367188,15723.29010325,0.01618582573723768,0.02585526348504079,0.03773613637640893,0.02890622988343239,0.01260790973901749,0.006624764297157526,-0.003586674109101295,0.0009992532432079315,-0.005928695201873779,XArbitraryZVertical,0.01876015507381671,0.01307722170122231,0.008334598203784384,0.9997037323489004,0.0258339773863554,-0.03772718086838722,-0.9989540576934814,0,0,0,-1,-1,,,,,,,,,,,,,,,,,,1,0.71
2021-12-13 15:36:56.317 -0500,,,,,,,,,,15723.30998425,0.02215576171875,-0.038665771484375,-1.000656127929688,15723.30004325,0.0161735981419251,0.02561220760256187,0.03824650818488766,0.02020781487226486,-0.04434508830308914,-0.01133972220122814,0.006910532712936401,-0.004731588065624237,-0.009161472320556641,XArbitraryZVertical,0.01901635753744975,0.01295761554395691,0.008329433938835035,0.9997005240704259,0.02559067867696285,-0.03823718428611755,-0.9989409446716309,0,0,0,-1,-1,,,,,,,,,,,,,,,,,,1,0.71
2021-12-13 15:36:56.327 -0500,,,,,,,,,,15723.31992425,0.020599365234375,-0.039520263671875,-0.997528076171875,15723.30998425,0.01597128558365413,0.02507566915491705,0.03833621190648574,-0.01163453795015812,-0.05502250045537949,-0.02721695601940155,0.004837341606616974,-0.003329694271087646,-0.01476651430130005,XArbitraryZVertical,0.01906471410752923,0.01268784990033641,0.00822376131770863,0.9997039150617909,0.02505461871623993,-0.03832682222127914,-0.9989511370658875,0,0,0,-1,-1,,,,,,,,,,,,,,,,,,1,0.71
2021-12-13 15:36:56.336 -0500,,,,,,,,,,15723.32986425,0.0185394287109375,-0.0389251708984375,-0.9880523681640625,15723.31992425,0.01574651957279429,0.02473315048207179,0.03840506260669621,0.01661334559321404,-0.03949650377035141,-0.0132735762745142,-0.002556640654802322,-0.0002701692283153534,-0.001699090003967285,XArbitraryZVertical,0.0191019440575223,0.01251476104012706,0.008108566545102728,0.9997063316035737,0.02471239306032658,-0.03839562088251114,-0.9989569783210754,0,0,0,-1,-1,,,,,,,,,,,,,,,,,,1,0.71
2021-12-13 15:36:56.346 -0500,,,,,,,,,,15723.33980425,0.0199737548828125,-0.040496826171875,-0.9923858642578125,15723.32986425,0.01562693987963604,0.02459567913061125,0.03887516934145003,0.02776320278644562,-0.004407490603625774,-0.008392801508307457,-0.003975261002779007,-0.0006549060344696045,0.001414179801940918,XArbitraryZVertical,0.01933823092897391,0.01244668391283196,0.008050335864184504,0.9997030850892179,0.02457461878657341,-0.03886537998914719,-0.9989421963691711,0,0,0,-1,-1,,,,,,,,,,,,,,,,,,1,0.71
2021-12-13 15:36:56.356 -0500,,,,,,,,,,15723.34974525,0.022857666015625,-0.045318603515625,-1.004959106445312,15723.33980425,0.01553887051676868,0.02458260530302636,0.03911540007822691,0.02164885029196739,-5.941465497016907e-05,-0.008075619116425514,-0.006021907553076744,0.0001802332699298859,0.01088082790374756,XArbitraryZVertical,0.01945891234372574,0.01244020218501462,0.008007646065981224,0.9997011179283035,0.02456132881343365,-0.03910542652010918,-0.9989331960678101,0,0,0,-1,-1,,,,,,,,,,,,,,,,,,1,0.71
2021-12-13 15:36:56.366 -0500,,,,,,,,,,15723.35968525,0.0219268798828125,-0.0455780029296875,-0.99853515625,15723.34974525,0.01548323912090086,0.02424884171907193,0.03931076392470659,0.03237925842404366,-0.03237580880522728,-0.004569300916045904,-0.004253987222909927,-0.001196209341287613,0.006547808647155762,XArbitraryZVertical,0.01955824249087566,0.01227356121635125,0.007977760156888856,0.9997015055353859,0.02422773279249668,-0.03930063918232918,-0.9989336729049683,0,0,0,-1,-1,,,,,,,,,,,,,,,,,,1,0.71
2021-12-13 15:36:56.377 -0500,,,,,,,,,,15723.36962525,0.0220184326171875,-0.0448150634765625,-1.00372314453125,15723.35968525,0.01541608894070746,0.02369639299854853,0.03921247723421507,-0.005166518501937389,-0.04452088847756386,-0.01141975075006485,-0.0008183028548955917,-0.006116196513175964,-0.006008327007293701,XArbitraryZVertical,0.01951171897149125,0.01199639469230197,0.007938217445090313,0.9997061026150184,0.02367596141993999,-0.03920242935419083,-0.9989507794380188,0,0,0,-1,-1,,,,,,,,,,,,,,,,,,1,0.71
2021-12-13 15:36:56.386 -0500,,,,,,,,,,15723.37956525,0.023040771484375,-0.05029296875,-0.993621826171875,15723.36962525,0.01521805745714499,0.0231682017224047,0.03909420565286817,-0.000187472440302372,-0.05566675215959549,-0.02352568134665489,-0.001221556216478348,-0.00649377703666687,0.0004326105117797852,XArbitraryZVertical,0.01945585626996369,0.01173000683264623,0.007833400642770594,0.9997112404445714,0.02314842864871025,-0.03908424824476242,-0.9989677667617798,0,0,0,-1,-1,,,,,,,,,,,,,,,,,,1,0.71
2021-12-13 15:36:56.396 -0500,,,,,,,,,,15723.38950625,0.0240020751953125,-0.053070068359375,-0.997100830078125,15723.37956525,0.01501939689172705,0.02287401533011254,0.0391986391604147,-0.0002074460498988628,-0.04035896807909012,-0.009516920894384384,-0.0008360259234905243,-0.005626484751701355,-0.004752695560455322,XArbitraryZVertical,0.01951036091125373,0.01158140373842305,0.007731826407211009,0.9997126902653394,0.02285445109009743,-0.03918860107660294,-0.9989704489707947,0,0,0,-1,-1,,,,,,,,,,,,,,,,,,1,0.71
2021-12-13 15:36:56.406 -0500,,,,,,,,,,15723.39944625,0.0233612060546875,-0.04925537109375,-1.010986328125,15723.38950625,0.01503830669988246,0.02282849653658629,0.03924560642204406,0.007962333038449287,-0.004551700316369534,0.01724252104759216,0.0002318266779184341,-0.01105746254324913,0.005347788333892822,XArbitraryZVertical,0.0195339047544513,0.01155900674558246,0.007741099156823396,0.9997124075198698,0.02280893735587597,-0.03923553228378296,-0.9989696145057678,0,0,0,-1,-1,,,,,,,,,,,,,,,,,,1,0.71
2021-12-13 15:36:56.416 -0500,,,,,,,,,,15723.40938625,0.0184478759765625,-0.041351318359375,-1.006088256835938,15723.39944625,0.01523936240347319,0.02269391365229714,0.03946811934267528,0.03357688337564468,-0.01840296760201454,0.02098333090543747,0.001327773556113243,-0.01361221820116043,0.00186312198638916,XArbitraryZVertical,0.01964449583014726,0.01149452150085319,0.007841529440922482,0.9997101587085988,0.02267429418861866,-0.03945787250995636,-0.9989639520645142,0,0,0,-1,-1,,,,,,,,,,,,,,,,,,1,0.71
2021-12-13 15:36:56.426 -0500,,,,,,,,,,15723.41932625,0.0197296142578125,-0.0399017333984375,-1.022308349609375,15723.40938625,0.01542248712173732,0.0223838998683673,0.03972019548365836,0.01558083761483431,-0.03160638734698296,0.0156365018337965,0.0009968206286430359,-0.009545642882585526,-0.01202535629272461,XArbitraryZVertical,0.01977067464864615,0.01134230185463363,0.007931411283313559,0.9997087024849041,0.02236437611281872,-0.03970975056290627,-0.9989609718322754,0,0,0,-1,-1,,,,,,,,,,,,,,,,,,1,0.71
2021-12-13 15:36:56.436 -0500,,,,,,,,,,15723.42926725,0.01177978515625,-0.0327911376953125,-1.01715087890625,15723.41932625,0.015505881318225,0.02188163735388942,0.03984193467729659,0.01870818808674812,-0.05477399006485939,0.002005511429160833,-0.003414658829569817,-0.00151994451880455,-0.007121026515960693,XArbitraryZVertical,0.01983305574920185,0.01109252649291944,0.007968787561880991,0.9997099621859863,0.02186252735555172,-0.03983139619231224,-0.9989672303199768,0,0,0,-1,-1,,,,,,,,,,,,,,,,,,1,0.71
2021-12-13 15:36:56.446 -0500,,,,,,,,,,15723.43920725,0.004608154296875,-0.0341949462890625,-0.999664306640625,15723.42926725,0.0154298157228589,0.02118398438965232,0.04014084995697897,0.03329139202833176,-0.07040275633335114,-0.01723369769752026,-0.00143573060631752,0.0002283155918121338,-0.02333807945251465,XArbitraryZVertical,0.0199856567122261,0.01074416640899267,0.007925405903449582,0.9997111402729365,0.02116533741354942,-0.04013007134199142,-0.9989702701568604,0,0,0,-1,-1,,,,,,,,,,,,,,,,,,1,0.71
2021-12-13 15:36:56.456 -0500,,,,,,,,,,15723.44914725,0.00738525390625,-0.04083251953125,-0.9958648681640625,15723.43920725,0.01523921097575393,0.0206716034465277,0.04067870048333432,0.05729659274220467,-0.04476387053728104,-0.01720852963626385,-0.008873255923390388,0.007876325398683548,-0.01819157600402832,XArbitraryZVertical,0.02025753577436123,0.01048813774349285,0.007827748342375897,0.9997090950536294,0.02065303176641464,-0.04066748172044754,-0.9989592432975769,0,0,0,-1,-1,,,,,,,,,,,,,,,,,,1,0.71
2021-12-13 15:36:56.466 -0500,,,,,,,,,,15723.45908725,0.0131378173828125,-0.044647216796875,-0.9907379150390625,15723.44914725,0.01511320910902375,0.02036812855431014,0.04158202133266189,0.09503172338008881,-0.02191874012351036,-0.008850731886923313,-0.01574096828699112,0.007375068962574005,-0.000735938549041748,XArbitraryZVertical,0.02071090379683568,0.01033848546572491,0.00776622007010121,0.9997018447066487,0.02034911513328552,-0.0415700376033783,-0.9989283680915833,0,0,0,-1,-1,,,,,,,,,,,,,,,,,,1,0.71
2021-12-13 15:36:56.478 -0500,,,,,,,,,,15723.46902725,0.0224609375,-0.0493316650390625,-0.9901275634765625,15723.45908725,0.01501280885078101,0.02029550041806441,0.04257126327772137,0.08359770476818085,-0.0002040918916463852,-0.007562960498034954,-0.01289047673344612,0.001725867390632629,0.003023386001586914,XArbitraryZVertical,0.02120617564443771,0.01030474857163748,0.007720222533253364,0.9996921772005553,0.02027571946382523,-0.04255840554833412,-0.9988881945610046,0,0,0,-1,-1,,,,,,,,,,,,,,,,,,1,0.71
2021-12-13 15:36:56.487 -0500,,,,,,,,,,15723.47896825,0.0303192138671875,-0.0575103759765625,-1.005355834960938,15723.46902725,0.014903491505589,0.02042022729150876,0.04338818693355529,0.0396140031516552,0.004266822710633278,-0.01470529194921255,-0.007261782884597778,-0.001272667199373245,0.008112668991088867,XArbitraryZVertical,0.02161459607475812,0.01036888682903949,0.007671006973945495,0.9996831577142891,0.02039959095418453,-0.04337457567453384,-0.9988505840301514,0,0,0,-1,-1,,,,,,,,,,,,,,,,,,1,0.71
2021-12-13 15:36:56.496 -0500,,,,,,,,,,15723.48890825,0.0227508544921875,-0.04840087890625,-1.013137817382812,15723.47896825,0.01480650986976098,0.02034576585897759,0.04386575091311568,0.0184240285307169,-0.03735239058732986,-0.004557316657155752,0.002136137336492538,-0.005480002611875534,0.008703708648681641,XArbitraryZVertical,0.02185408995200525,0.01033233433722326,0.007624116857624964,0.9996786582594368,0.02032479271292686,-0.04385168477892876,-0.9988312721252441,0,0,0,-1,-1,,,,,,,,,,,,,,,,,,1,0.71
2021-12-13 15:36:56.505 -0500,,,,,,,,,,15723.49884825,0.008575439453125,-0.027618408203125,-0.991973876953125,15723.48890825,0.01476054477017323,0.01988785180867271,0.0442070270544381,0.02647369913756847,-0.06448280811309814,-0.01249247137457132,0.01045209355652332,-0.01331777125597,-0.006530344486236572,XArbitraryZVertical,0.02202665003591246,0.01010416941008015,0.007597806004411057,0.9996774514408158,0.01986711286008358,-0.04419263079762459,-0.9988254904747009,0,0,0,-1,-1,,,,,,,,,,,,,,,,,,1,0.71
2021-12-13 15:36:56.515 -0500,,,,,,,,,,15723.50878825,0.0043487548828125,-0.027984619140625,-0.9919586181640625,15723.49884825,0.01451152804772417,0.01931096639277966,0.04426564303863055,-0.00405438244342804,-0.04019441828131676,-0.02778580598533154,0.003459995612502098,-0.00414971262216568,-0.01430362462997437,XArbitraryZVertical,0.02205935988122333,0.009813282116244524,0.007467261309456179,0.9996806792496865,0.0192908514291048,-0.04425118863582611,-0.9988341927528381,0,0,0,-1,-1,,,,,,,,,,,,,,,,,,1,0.71
2021-12-13 15:36:56.525 -0500,,,,,,,,,,15723.51872925,0.0069732666015625,-0.0322418212890625,-1.003997802734375,15723.50878825,0.01419149550717117,0.01915848572951293,0.04398534691684403,-0.01743223890662193,-0.004316311329603195,-0.04126299917697906,-0.01056335493922234,0.01635273918509483,0.00687563419342041,XArbitraryZVertical,0.02192138349592759,0.009732571848801299,0.007304294186219484,0.9996856723737755,0.01913878507912159,-0.04397116601467133,-0.9988494515419006,0,0,0,-1,-1,,,,,,,,,,,,,,,,,,1,0.71
2021-12-13 15:36:56.535 -0500,,,,,,,,,,15723.52866925,0.0126953125,-0.04022216796875,-0.99481201171875,15723.51872925,0.01372127042372464,0.01898919012529829,0.04370970188654092,0.01925173960626125,0.005159083753824234,-0.05022506788372993,-0.01462116651237011,0.01571114361286163,0.00690615177154541,XArbitraryZVertical,0.02178649008466473,0.009641879982389632,0.007066112332773322,0.9996911769166584,0.01896991394460201,-0.04369578510522842,-0.9988647699356079,0,0,0,-1,-1,,,,,,,,,,,,,,,,,,1,0.71
2021-12-13 15:36:56.545 -0500,,,,,,,,,,15723.53860925,0.017486572265625,-0.0519866943359375,-0.994293212890625,15723.52866925,0.01323286709301171,0.01891055354289515,0.04377500111539776,0.03602299839258194,0.0387071892619133,-0.04951160773634911,-0.01191805303096771,0.0115191750228405,-0.005134403705596924,XArbitraryZVertical,0.02182175153502624,0.009597462224262965,0.006821432952389642,0.9996925509948522,0.01889131218194962,-0.04376102238893509,-0.9988633990287781,0,0,0,-1,-1,,,,,,,,,,,,,,,,,,1,0.71
2021-12-13 15:36:56.555 -0500,,,,,,,,,,15723.54854925,0.024688720703125,-0.06402587890625,-0.9876251220703125,15723.53860925,0.0127483434697994,0.01912151651181744,0.04418097838248999,0.06901156902313232,0.04879654198884964,-0.04501419514417648,-0.006406387314200401,0.003944415599107742,0.004029512405395508,XArbitraryZVertical,0.02202630922115336,0.009698875781282413,0.006583459461505035,0.9996886402990344,0.0191016923636198,-0.04416660591959953,-0.9988415241241455,0,0,0,-1,-1,,,,,,,,,,,,,,,,,,1,0.71
2021-12-13 15:36:56.565 -0500,,,,,,,,,,15723.55849025,0.0274200439453125,-0.069549560546875,-0.9687652587890625,15723.54854925,0.01238371764497746,0.01935001093557706,0.04512959846666172,0.1129891499876976,0.02199795097112656,-0.01986543275415897,-0.001842539757490158,-0.006872430443763733,0.004501640796661377,XArbitraryZVertical,0.0225015063097234,0.009811904959818388,0.006408241735107817,0.9996781147204165,0.01932910270988941,-0.04511428251862526,-0.9987947940826416,0,0,0,-1,-1,,,,,,,,,,,,,,,,,,1,0.71
2021-12-13 15:36:56.575 -0500,,,,,,,,,,15723.56843025,0.0335540771484375,-0.0723724365234375,-0.9812774658203125,15723.55849025,0.0122849749305892,0.01970872664100917,0.04629322593586705,0.09436646103858948,0.03834356740117073,0.004270263016223907,0.005002375692129135,-0.01774920895695686,0.01110953092575073,XArbitraryZVertical,0.02308247296013258,0.009993535562725298,0.006368572034709578,0.9996633333772694,0.01968633756041527,-0.04627669230103493,-0.9987346529960632,0,0,0,-1,-1,,,,,,,,,,,,,,,,,,1,0.71
2021-12-13 15:36:56.585 -0500,,,,,,,,,,15723.57837025,0.03680419921875,-0.070465087890625,-1.004425048828125,15723.56843025,0.01247563525083197,0.02036802523390123,0.04734730953230214,0.07201322168111801,0.04719191789627075,0.03821970894932747,0.007076242938637733,-0.02221996337175369,0.02990686893463135,XArbitraryZVertical,0.02360624739236049,0.01032843380740306,0.006476766921055366,0.9996470581581828,0.02034379169344902,-0.0473296195268631,-0.9986721277236938,0,0,0,-1,-1,,,,,,,,,,,,,,,,,,1,0.71
2021-12-13 15:36:56.595 -0500,,,,,,,,,,15723.58831025,0.028564453125,-0.0643768310546875,-0.9998016357421875,15723.57837025,0.01285089557458724,0.02071903102346637,0.04818170317860842,0.09903179109096527,0.01212484575808048,0.04182789102196693,0.01286056451499462,-0.0242093950510025,0.01734763383865356,XArbitraryZVertical,0.02402018977106128,0.01051088141601284,0.006672730749772784,0.9996338730324343,0.02069350518286228,-0.04816306382417679,-0.9986250996589661,0,0,0,-1,-1,,,,,,,,,,,,,,,,,,1,0.71
2021-12-13 15:36:56.605 -0500,,,,,,,,,,15723.59825025,0.02093505859375,-0.0470428466796875,-0.999176025390625,15723.58831025,0.01341338020352968,0.02042635549172958,0.04876235429289705,0.09888904541730881,0.0006719231605529785,0.06720808148384094,0.01640353538095951,-0.02172208204865456,-0.005822062492370605,XArbitraryZVertical,0.02430846864244538,0.01037322678745704,0.00695327196576823,0.9996264535746513,0.02040065638720989,-0.04874303191900253,-0.9986029863357544,0,0,0,-1,-1,,,,,,,,,,,,,,,,,,1,0.71
2021-12-13 15:36:56.615 -0500,,,,,,,,,,15723.60819125,0.02020263671875,-0.0426788330078125,-1.019577026367188,15723.59825025,0.01398082461616277,0.02008582877423733,0.04906139957987792,0.05565102398395538,0.005485186353325844,0.03938231244683266,0.008504131808876991,-0.01533513143658638,-0.001206338405609131,XArbitraryZVertical,0.02445622111929931,0.01021093079310031,0.00723422434417206,0.9996226197922269,0.02006031200289726,-0.04904171824455261,-0.9985952377319336,0,0,0,-1,-1,,,,,,,,,,,,,,,,,,1,0.71
2021-12-13 15:36:56.625 -0500,,,,,,,,,,15723.61813125,0.0172119140625,-0.0552978515625,-1.028457641601562,15723.60819125,0.01418712738079928,0.01962723586930214,0.04914288127277213,0.04568547755479813,-0.04519370198249817,0.002470898441970348,0.001332769170403481,0.002080231904983521,-0.0005756616592407227,XArbitraryZVertical,0.02449757518484761,0.009984522530940954,0.007332121671096599,0.9996231795845318,0.01960228197276592,-0.04912310466170311,-0.9986003637313843,0,0,0,-1,-1,,,,,,,,,,,,,,,,,,1,0.71
2021-12-13 15:36:56.635 -0500,,,,,,,,,,15723.62807125,0.007293701171875,-0.04541015625,-1.002716064453125,15723.61813125,0.01416526194568291,0.01866977451707216,0.04958150736302529,0.07983279228210449,-0.105634942650795,-0.001221041660755873,0.0015568807721138,0.006882335990667343,-0.02098000049591064,XArbitraryZVertical,0.02472041770968477,0.009507205437466878,0.007311472589870104,0.9996225086613701,0.0186457484960556,-0.04956119507551193,-0.9985970258712769,0,0,0,-1,-1,,,,,,,,,,,,,,,,,,1,0.71
2021-12-13 15:36:56.645 -0500,,,,,,,,,,15723.63801125,0.001190185546875,-0.0375823974609375,-0.9871978759765625,15723.62807125,0.01411302062897943,0.01776694210536053,0.05039099990192159,0.06402134150266647,-0.06822045892477036,-0.01044090464711189,-0.0005315523594617844,-0.004928193986415863,-0.02988457679748535,XArbitraryZVertical,0.02512855003488975,0.009058079406913293,0.007277725697946838,0.9996166151619512,0.01774345524609089,-0.05036967620253563,-0.9985730051994324,0,0,0,-1,-1,,,,,,,,,,,,,,,,,,1,0.71
2021-12-13 15:36:56.654 -0500,,,,,,,,,,15723.64795225,0.008209228515625,-0.053955078125,-0.996246337890625,15723.63801125,0.01385687494957172,0.01746075228459576,0.05126888114203799,0.05421717837452888,-0.03723697736859322,-0.0384104885160923,-0.01014323346316814,0.005836248397827148,-0.004182219505310059,XArbitraryZVertical,0.0255695750534959,0.008904766692930676,0.007149607582454646,0.999607791389464,0.01743692345917225,-0.05124642327427864,-0.9985337853431702,0,0,0,-1,-1,,,,,,,,,,,,,,,,,,1,0.71
2021-12-13 15:36:56.665 -0500,,,,,,,,,,15723.65789225,0.01605224609375,-0.061126708984375,-0.9976348876953125,15723.64795225,0.01342952037555027,0.01742569247950857,0.05232390449624175,0.05874082446098328,-0.02074588462710381,-0.03480749949812889,-0.01621078513562679,0.01471761241555214,0.01128190755844116,XArbitraryZVertical,0.02609890222499118,0.008885201456093127,0.006940068294783993,0.9995957719925734,0.0174009632319212,-0.05230003222823143,-0.9984797835350037,0,0,0,-1,-1,,,,,,,,,,,,,,,,,,1,0.71
2021-12-13 15:36:56.674 -0500,,,,,,,,,,15723.66783225,0.0182952880859375,-0.060211181640625,-1.001632690429688,15723.65789225,0.01316083800549815,0.01769513126587452,0.05320705532846151,0.02220651507377625,-0.003732280805706978,-0.01747937314212322,-0.009459946304559708,-0.0007731467485427856,0.002182185649871826,XArbitraryZVertical,0.02654057420223655,0.009019161776525328,0.006813126220515806,0.9995838131117015,0.01766916736960411,-0.05318195372819901,-0.9984285235404968,0,0,0,-1,-1,,,,,,,,,,,,,,,,,,1,0.71
2021-12-13 15:36:56.684 -0500,,,,,,,,,,15723.67777225,0.0252685546875,-0.0631256103515625,-1.00604248046875,15723.66783225,0.01295830436953231,0.01804751229629779,0.05367443337966744,-0.002380585297942162,-0.01805396005511284,-0.01649240590631962,-0.001968305557966232,-0.007478062063455582,0.0007624030113220215,XArbitraryZVertical,0.026773897287717,0.009194048846689814,0.006718645593514816,0.9995765880691372,0.01802054420113564,-0.05364866554737091,-0.9983972311019897,0,0,0,-1,-1,,,,,,,,,,,,,,661120616.6719472,0,0.00999999,101.863,1,0.71
2021-12-13 15:36:56.694 -0500,,,,,,,,,,15723.68771325,0.0215606689453125,-0.0574188232421875,-1.00738525390625,15723.67777225,0.01279198725390315,0.01810964260186336,0.05372754742033816,-0.03400082886219025,-0.01913889870047569,-0.01001946069300175,0.0002127569168806076,-0.006509501487016678,-0.00323939323425293,XArbitraryZVertical,0.02680099885805624,0.00922303674860922,0.00663658908417963,0.9995762407897225,0.01808252185583115,-0.05370170250535011,-0.9983932971954346,0,0,0,-1,-1,,,,,,,,,,,,,,,,,,1,0.71
2021-12-13 15:36:56.704 -0500,,,,,,,,,,15723.69765325,0.01043701171875,-0.056182861328125,-1.01556396484375,15723.68771325,0.01268714816699546,0.01797067917314117,0.05319400445047275,-0.03052140772342682,-0.03260943293571472,-0.01125063933432102,0.007324252277612686,-0.009956713765859604,-0.007618188858032227,XArbitraryZVertical,0.02653528122117397,0.009150552697265996,0.006579979177652066,0.9995842959729491,0.01794429495930672,-0.05316892266273499,-0.9984242916107178,0,0,0,-1,-1,,,,,,,,,,,,,,,,,,1,0.71
2021-12-13 15:36:56.714 -0500,,,,,,,,,,15723.70759325,0.0025177001953125,-0.047210693359375,-1.006988525390625,15723.69765325,0.01263151901496748,0.01748388721315117,0.05281350837607748,0.005312221590429544,-0.0581805408000946,0.004710617009550333,0.004102041944861412,-0.004629887640476227,-0.008932173252105713,XArbitraryZVertical,0.02634695967070208,0.008905362622010667,0.006544086770725446,0.999591711916608,0.01745861954987049,-0.05278896167874336,-0.9984530806541443,0,0,0,-1,-1,,,,,,,,,,,,,,,,,,1,0.71
2021-12-13 15:36:56.724 -0500,,,,,,,,,,15723.71753325,0.0018157958984375,-0.037750244140625,-1.022232055664062,15723.70759325,0.01279958235650022,0.01698880634661122,0.05290006808322179,0.01276188157498837,-0.04717982187867165,0.02756187133491039,-0.006527220830321312,-0.003307484090328217,-0.01710695028305054,XArbitraryZVertical,0.02639111292591651,0.008660403999446099,0.006621922181514677,0.9995922092639862,0.01696422509849072,-0.05287539958953857,-0.9984570145606995,0,0,0,-1,-1,,,,,,,,,,,,,,,,,,1,0.71
2021-12-13 15:36:56.734 -0500,,,,,,,,,,15723.72747425,0.0040283203125,-0.0450439453125,-1.019927978515625,15723.71753325,0.01301961891113839,0.01603684403949123,0.05312986937621556,0.06337818503379822,-0.09734395891427994,0.01051537599414587,-0.01349583640694618,0.005894161760807037,-0.008527994155883789,XArbitraryZVertical,0.02650821591155858,0.008188243139700058,0.006720234823553339,0.9995924200460825,0.01601352915167809,-0.05310487747192383,-0.9984605312347412,0,0,0,-1,-1,,,,,,,,,,,,,,,,,,1,0.71
2021-12-13 15:36:56.744 -0500,,,,,,,,,,15723.73741425,-0.0088958740234375,-0.0231170654296875,-1.030471801757812,15723.72747425,0.01299366449028436,0.01464135415780771,0.05348045927401449,0.0731932669878006,-0.1145975142717361,-0.01264746766537428,-0.01280410960316658,0.01570470258593559,-0.0237688422203064,XArbitraryZVertical,0.02668821914128872,0.00749154042364642,0.006690017371318344,0.9995933372664234,0.01461989805102348,-0.05345496907830238,-0.9984632134437561,0,0,0,-1,-1,,,,,,,,,,,,,,,,,,1,0.71
2021-12-13 15:36:56.755 -0500,,,,,,,,,,15723.74735425,-0.0052337646484375,-0.03143310546875,-1.00909423828125,15723.73741425,0.01241491847624011,0.01323208578343683,0.05490830610617025,0.208101823925972,-0.1462187170982361,-0.1054518446326256,-0.009183445945382118,0.009836751967668533,-0.02152246236801147,XArbitraryZVertical,0.02740852012855429,0.006783767863173653,0.006386554125631876,0.9995809605199004,0.01321175880730152,-0.05488071963191032,-0.9984055161476135,0,0,0,-1,-1,,,,,,,,,,,,,,,,,,1,0.71
2021-12-13 15:36:56.764 -0500,,,,,,,,,,15723.75729425,0.0024261474609375,-0.063812255859375,-0.9966888427734375,15723.74735425,0.01114779917394004,0.01201089229831698,0.05702669652682174,0.1735512912273407,-0.1230958253145218,-0.1343665719032288,-0.02088696137070656,0.03387870639562607,-0.03216934204101562,XArbitraryZVertical,0.02847506648874047,0.006161780689167826,0.005742712746313418,0.9995590706164782,0.01199107896536589,-0.05699579417705536,-0.9983024001121521,0,0,0,-1,-1,,,,,,,,,,,,,,,,,,1,0.71
2021-12-13 15:36:56.774 -0500,,,,,,,,,,15723.76723425,0.0042266845703125,-0.0670318603515625,-1.002655029296875,15723.75729425,0.009949264692937006,0.01125120159128054,0.05843710922153151,0.1047796905040741,-0.06998376548290253,-0.09560919553041458,-0.01646553166210651,0.02697072923183441,-0.01086437702178955,XArbitraryZVertical,0.0291856002700869,0.0057684283096354,0.005136755414908878,0.9995441743555334,0.01123175956308842,-0.0584038570523262,-0.9982298612594604,0,0,0,-1,-1,,,,,,,,,,,,,,,,,,1,0.71
2021-12-13 15:36:56.785 -0500,,,,,,,,,,15723.77717525,0.0070648193359375,-0.064666748046875,-0.9907379150390625,15723.76723425,0.009119261709039428,0.01100670133470381,0.05945347436034196,0.0793779268860817,-0.05261916294693947,-0.07398539781570435,-0.008560893125832081,-0.004393823444843292,0.00148385763168335,XArbitraryZVertical,0.02969651727574932,0.005636354575682543,0.004721101447234713,0.9995319519785044,0.01098703220486641,-0.0594184547662735,-0.9981727004051208,0,0,0,-1,-1,,,,,,,,,,,,,,,,,,1,0.71
2021-12-13 15:36:56.794 -0500,,,,,,,,,,15723.78711525,0.0043487548828125,-0.070159912109375,-0.98388671875,15723.77717525,0.008448329868660677,0.01089407671802155,0.05988939433509793,0.02446221373975277,-0.0251972246915102,-0.05609866976737976,-0.006647654809057713,-0.007178280502557755,-0.004507064819335938,XArbitraryZVertical,0.02991651081534578,0.005570990811512151,0.004385279062432055,0.9995273036495593,0.01087433006614447,-0.05985359847545624,-0.9981479048728943,0,0,0,-1,-1,,,,,,,,,,,,,,,,,,1,0.71
2021-12-13 15:36:56.804 -0500,,,,,,,,,,15723.79705525,0.00433349609375,-0.0656280517578125,-0.9978790283203125,15723.78711525,0.008030589347494262,0.01072322141309055,0.06005250278110252,0.0386989414691925,-0.01402526348829269,-0.02999516576528549,-0.003638875670731068,-0.004650350660085678,0.007402122020721436,XArbitraryZVertical,0.02999954794548443,0.005479669189585814,0.00417437914653964,0.9995261658043665,0.0107036866247654,-0.06001641601324081,-0.9981399774551392,0,0,0,-1,-1,,,,,,,,,,,,,,,,,,1,0.71
2021-12-13 15:36:56.814 -0500,,,,,,,,,,15723.80699525,0.0056304931640625,-0.0619049072265625,-0.9918975830078125,15723.79705525,0.007783617310581734,0.01038162041343247,0.06038203310601926,0.08807208389043808,-0.02255510352551937,-0.02779406309127808,-0.00601376686245203,-0.009814586490392685,0.01423704624176025,XArbitraryZVertical,0.03016560040662236,0.005305859601222065,0.004046662686290756,0.999522716041241,0.01036251429468393,-0.06034534797072411,-0.9981237649917603,0,0,0,-1,-1,,,,,,,,,,,,,,,,,,1,0.71
2021-12-13 15:36:56.824 -0500,,,,,,,,,,15723.81693625,0.0174560546875,-0.075103759765625,-0.9727020263671875,15723.80699525,0.007328153383026053,0.00997861384237313,0.06082398791715635,0.1008475348353386,-0.02204910293221474,-0.06130382046103477,-0.005626507103443146,-0.004841580986976624,0.0002220869064331055,XArbitraryZVertical,0.03038845042642091,0.005098358618050741,0.003814038267202138,0.999517903867169,0.009959995746612549,-0.06078648939728737,-0.9981011152267456,0,0,0,-1,-1,,,,,,,,,,,,,,,,,,1,0.71
2021-12-13 15:36:56.834 -0500,,,,,,,,,,15723.82687625,0.01666259765625,-0.0743865966796875,-0.9944610595703125,15723.81693625,0.006898483442401267,0.009810696101183956,0.06104011012514353,0.01049340143799782,0.01137383468449116,-0.02238571643829346,-0.004161782562732697,-0.0009027160704135895,0.006192028522491455,XArbitraryZVertical,0.03049785504565598,0.005008267731480317,0.00359727363180249,0.9995158681681879,0.0097922682762146,-0.0610022135078907,-0.998089611530304,0,0,0,-1,-1,,,,,,,,,,,,,,,,,,1,0.71
2021-12-13 15:36:56.844 -0500,,,,,,,,,,15723.83681625,0.011932373046875,-0.0586395263671875,-0.9850311279296875,15723.82687625,0.006761030828262567,0.009478975371402939,0.06009456141358263,-0.02175348438322544,0.004796359688043594,-0.0181060153990984,0.007994323968887329,-0.01504538208246231,0.0254480242729187,XArbitraryZVertical,0.03002623552153785,0.004838862153870618,0.003521331002454612,0.9995312091589151,0.009461723268032074,-0.06005839630961418,-0.9981500506401062,0,0,0,-1,-1,,,,,,,,,,,,,,,,,,1,0.71
2021-12-13 15:36:56.853 -0500,,,,,,,,,,15723.84675625,0.0109100341796875,-0.05718994140625,-0.9995574951171875,15723.83681625,0.006496480799455411,0.009194337349918192,0.05910344316717147,-0.03522295504808426,0.004837872460484505,-0.04153957217931747,0.00748443603515625,-0.01531757786870003,0.00375068187713623,XArbitraryZVertical,0.02953202509291866,0.004691096774963819,0.003382615266666202,0.9995471432771766,0.009178154170513153,-0.05906903743743896,-0.998211681842804,0,0,0,-1,-1,,,,,,,,,,,,,,,,,,1,0.71
2021-12-13 15:36:56.864 -0500,,,,,,,,,,15723.85669725,0.0179443359375,-0.0666961669921875,-1.006515502929688,15723.84675625,0.005963361347998753,0.009112527667063594,0.05919771591685435,0.0308841597288847,0.0001232773065567017,-0.06031139194965363,0.002835924737155437,0.0005236007273197174,0.01317578554153442,XArbitraryZVertical,0.02958051928465244,0.004642472707581293,0.003115178875521048,0.9995467291717641,0.009096439927816391,-0.05916314572095871,-0.9982068538665771,0,0,0,-1,-1,,,,,,,,,,,,,,,,,,1,0.71
2021-12-13 15:36:56.874 -0500,,,,,,,,,,15723.86663725,0.008697509765625,-0.06396484375,-1.005447387695312,15723.85669725,0.005381919623414745,0.008907140897440855,0.05986168078652385,0.06985446065664291,-0.02937698923051357,-0.06199810653924942,0.002018957398831844,0.002635970711708069,-0.001388251781463623,XArbitraryZVertical,0.02991398725324979,0.004532074608199993,0.002823002876140384,0.9995382254982325,0.008891069330275059,-0.05982593446969986,-0.9981692433357239,0,0,0,-1,-1,,,,,,,,,,,,,,,,,,1,0.71
2021-12-13 15:36:56.883 -0500,,,,,,,,,,15723.87657725,0.0033111572265625,-0.059051513671875,-1.015670776367188,15723.86663725,0.00473096829264472,0.008489973831420236,0.06073365873349903,0.08121870458126068,-0.05494626611471176,-0.07032021135091782,0.009470108896493912,-0.005999859422445297,-0.008395195007324219,XArbitraryZVertical,0.03035176924031216,0.004314826007246828,0.002493256483481546,0.9995267887590877,0.008474218659102917,-0.06069632992148399,-0.9981203079223633,0,0,0,-1,-1,,,,,,,,,,,,,,,,,,1,0.71
2021-12-13 15:36:56.894 -0500,,,,,,,,,,15723.88651725,0.0019683837890625,-0.0633544921875,-1.011886596679688,15723.87657725,0.00396734230341069,0.007683931137427772,0.06182607228656083,0.08903774619102478,-0.09567229449748993,-0.08131840825080872,0.001028327737003565,-0.002178173512220383,-0.007387459278106689,XArbitraryZVertical,0.03090020734328177,0.003901424149484937,0.0021014549290812,0.9995126215888457,0.007669174578040838,-0.06178669258952141,-0.9980599284172058,0,0,0,-1,-1,,,,,,,,,,,,,,,,,,1,0.71
2021-12-13 15:36:56.903 -0500,,,,,,,,,,15723.89645825,0.004425048828125,-0.067657470703125,-1.003158569335938,15723.88651725,0.003158170568906827,0.006730152000322253,0.062782732806905,0.08532077074050903,-0.08716908097267151,-0.07702991366386414,-0.003405691124498844,0.003689959645271301,-0.01766353845596313,XArbitraryZVertical,0.03138068557750894,0.003412969071443646,0.001683914530552701,0.999500180850896,0.006716841831803322,-0.06274149566888809,-0.9980072379112244,0,0,0,-1,-1,,,,,,,,,,,,,,,,,,1,0.71
2021-12-13 15:36:56.913 -0500,,,,,,,,,,15723.90639825,0.0073394775390625,-0.0721282958984375,-0.9948883056640625,15723.89645825,0.00241664774313088,0.006023564358136915,0.0636053384012704,0.07809614390134811,-0.05966069176793098,-0.06481266766786575,-0.004042971413582563,0.000207945704460144,-0.01392680406570435,XArbitraryZVertical,0.0317935064478717,0.003048674013489777,0.001303473575300827,0.9994888747837737,0.006011347752064466,-0.06356246024370193,-0.9979597330093384,0,0,0,-1,-1,,,,,,,,,,,,,,,,,,1,0.71
2021-12-13 15:36:56.923 -0500,,,,,,,,,,15723.91633825,0.00726318359375,-0.0750274658203125,-0.9997406005859375,15723.90639825,0.001897225325743839,0.005969003948956341,0.0643472949798958,0.006968175061047077,-0.01416697725653648,-0.04112917557358742,-0.001531573478132486,-0.003354594111442566,-0.00524592399597168,XArbitraryZVertical,0.03216511154289802,0.003013466748053325,0.001044123001555382,0.9994774218832114,0.005956615321338177,-0.06430289894342422,-0.9979126453399658,0,0,0,-1,-1,,,,,,,,,,,,,,,,,,1,0.71
2021-12-13 15:36:56.933 -0500,,,,,,,,,,15723.92627825,0.009490966796875,-0.0736083984375,-1.012985229492188,15723.91633825,0.001512309993277996,0.006251622914694697,0.06429428798735734,-0.05434311926364899,0.01488414965569973,-0.03479178622364998,0.001100804191082716,-0.007878310978412628,0.003026068210601807,XArbitraryZVertical,0.03213908069392524,0.003148494564659738,0.0008562290243586991,0.9994780178190699,0.0062386654317379,-0.06424999982118607,-0.9979143142700195,0,0,0,-1,-1,,,,,,,,,,,,,,,,,,1,0.71
2021-12-13 15:36:56.943 -0500,,,,,,,,,,15723.93621825,0.0051727294921875,-0.063262939453125,-1.00439453125,15723.92627825,0.001229771201914402,0.006595508317916838,0.06354121767466478,-0.07975846529006958,0.02519457601010799,-0.01951855607330799,0.0006810254417359829,-0.01152901351451874,-0.001780331134796143,XArbitraryZVertical,0.03176305801611316,0.003315615170956025,0.0007193257186398176,0.9994896974187174,0.006582150235772133,-0.06349846720695496,-0.9979602098464966,0,0,0,-1,-1,,,,,,,,,,,,,,,,,,1,0.71
2021-12-13 15:36:56.953 -0500,,,,,,,,,,15723.94615925,0.0005950927734375,-0.0677947998046875,-1.0035400390625,15723.93621825,0.0009463939301533701,0.007024679232699986,0.06242007906299476,-0.11031823605299,0.03387504816055298,-0.03953980281949043,0.00248001841828227,-0.01122886314988136,-0.01495730876922607,XArbitraryZVertical,0.03120311739976081,0.003525387705419498,0.0005825658521448999,0.9995066263836173,0.007010940928012133,-0.06237955391407013,-0.9980278611183167,0,0,0,-1,-1,,,,,,,,,,,,,,,,,,1,0.71
2021-12-13 15:36:56.963 -0500,,,,,,,,,,15723.95609925,0.00408935546875,-0.072479248046875,-1.001693725585938,15723.94615925,0.0004483409375527607,0.007597207421670628,0.06144613156877062,-0.09670335799455643,0.03086381405591965,-0.0544135570526123,-0.002410075161606073,-0.001855485141277313,-0.006310522556304932,XArbitraryZVertical,0.03071716111332411,0.003803688170017745,0.0003407492056503661,0.9995207589958433,0.007582796737551689,-0.06140747293829918,-0.9980839490890503,0,0,0,-1,-1,,,,,,,,,,,,,,,,,,1,0.71
2021-12-13 15:36:56.985 -0500,,,,,,,,,,15723.96603925,-0.0035858154296875,-0.0638427734375,-0.9958953857421875,15723.95609925,1.500337820558974e-05,0.00784983132683102,0.06079663518129338,-0.03574173897504807,0.003178490325808525,-0.03275793045759201,-0.007240163162350655,-0.007035631686449051,-0.005418300628662109,XArbitraryZVertical,0.0303933732024957,0.003923320380993018,0.0001267903248182989,0.9995302882818455,0.007835247553884983,-0.06075919046998024,-0.9981216788291931,0,0,0,-1,-1,,,,,,,,,,,,,,,,,,1,0.71
2021-12-13 15:36:57.002 -0500,,,,,,,,,,15723.97597925,-0.00347900390625,-0.0512542724609375,-1.00103759765625,15723.96603925,-0.0002046664439215639,0.00785151261866217,0.06060793575738715,0.00138991791754961,0.02597594633698463,-0.01753450185060501,-0.003747669048607349,-0.01190843060612679,-0.003560543060302734,XArbitraryZVertical,0.03029949981507247,0.003920843429576101,1.666204681039299e-05,0.9995331090205835,0.007837016135454178,-0.06057083606719971,-0.99813312292099,0,0,0,-1,-1,,,,,,,,,,,,,,,,,,1,0.71
2021-12-13 15:36:57.004 -0500,,,,,,,,,,15723.98592025,-0.0001983642578125,-0.0561065673828125,-0.9970550537109375,15723.97597925,-0.0004688503054970485,0.00806727096130104,0.06080637693850847,0.026142667979002,0.03256001323461533,-0.03653402626514435,-0.0116380974650383,-0.003073882311582565,0.00222402811050415,XArbitraryZVertical,0.03039920433712597,0.004024634543501379,-0.0001116987441340707,0.9995296457651618,0.008052274584770203,-0.06076891347765923,-0.9981193542480469,0,0,0,-1,-1,,,,,,,,,,,,,,,,,,1,0.71
2021-12-13 15:36:57.006 -0500,,,,,,,,,,15723.99586025,0.0050048828125,-0.0653076171875,-1.000259399414062,15723.98592025,-0.0008926655755585262,0.008339202593022036,0.06112940554929314,0.003831770271062851,0.03048541210591793,-0.04606547951698303,-0.01180254109203815,0.009837046265602112,-0.002940118312835693,XArbitraryZVertical,0.03056153633915333,0.004154001657411144,-0.0003186980300597352,0.9995241778986954,0.008323529735207558,-0.0610913410782814,-0.9980974793434143,0,0,0,-1,-1,,,,,,,,,,,,,,,,,,1,0.71
2021-12-13 15:36:57.013 -0500,,,,,,,,,,15724.00580025,0.007537841796875,-0.06243896484375,-1.003158569335938,15723.99586025,-0.001373076314203754,0.008599396518273593,0.06123137068476742,-0.02928197383880615,0.01200760155916214,-0.05031854659318924,-0.008781547658145428,0.00508652999997139,0.001034021377563477,XArbitraryZVertical,0.03061356349121422,0.004276653758212819,-0.0005545928267499077,0.9995219800343548,0.008583175018429756,-0.06119311600923538,-0.9980890154838562,0,0,0,-1,-1,,,,,,,,,,,,,,,,,,1,0.71
2021-12-13 15:36:57.022 -0500,,,,,,,,,,15724.01574025,0.001190185546875,-0.0675811767578125,-0.991485595703125,15724.00580025,-0.001916196817727836,0.008626944964553985,0.06106330331634387,-0.05888114869594574,-0.01088732853531837,-0.05698177590966225,-0.003605883568525314,-0.004282277077436447,-0.002160310745239258,XArbitraryZVertical,0.03053074021047433,0.004282199182509222,-0.0008259662991227587,0.9995243451278268,0.008610758930444717,-0.06102536246180534,-0.9980990886688232,0,0,0,-1,-1,,,,,,,,,,,,,,,,,,1,0.71
2021-12-13 15:36:57.032 -0500,,,,,,,,,,15724.025682625,0.000946044921875,-0.0650177001953125,-1.000228881835938,15724.01574025,-0.002347125952677549,0.008565705697233856,0.06069807497871122,-0.06007956713438034,-0.01014637015759945,-0.02954082936048508,-0.001011992804706097,-0.001778174191713333,-0.005036711692810059,XArbitraryZVertical,0.03034910123078999,0.004245253560922842,-0.001043051446728623,0.999529874169902,0.0085498271510005,-0.06066080927848816,-0.9981217980384827,0,0,0,-1,-1,,,,,,,,,,,,,,,,,,1,0.71
2021-12-13 15:36:57.043 -0500,,,,,,,,,,15724.035622625,0.0093841552734375,-0.0745391845703125,-0.9984893798828125,15724.025682625,-0.002563874607829655,0.008441124059419868,0.06027971961724932,-0.04102757945656776,-0.003490597940981388,-0.01530383713543415,-0.007235514000058174,-0.007337979972362518,0.006662547588348389,XArbitraryZVertical,0.0301404121410349,0.004179998042415987,-0.001154155929112232,0.9995362515283154,0.008425693027675152,-0.06024321913719177,-0.9981481432914734,0,0,0,-1,-1,,,,,,,,,,,,,,,,,,1,0.71
2021-12-13 15:36:57.052 -0500,,,,,,,,,,15724.045562625,0.0102386474609375,-0.078094482421875,-0.9876861572265625,15724.035622625,-0.002479910411783584,0.008297371906242782,0.06010916434509406,-0.02841564640402794,0.0140790082514286,0.02449124678969383,-0.007336253300309181,-0.004944749176502228,-0.002069234848022461,XArbitraryZVertical,0.03005491836839518,0.004109536968659745,-0.001114716466482622,0.9995391641187962,0.008282291702926159,-0.06007297337055206,-0.998159646987915,0,0,0,-1,-1,,,,,,,,,,,,,,,,,,1,0.71
2021-12-13 15:36:57.062 -0500,,,,,,,,,,15724.055502625,0.0077362060546875,-0.0755615234375,-0.99053955078125,15724.045562625,-0.002070797892091606,0.008447395887999861,0.06013066089148874,-0.01193893700838089,0.04673974961042404,0.07120894640684128,0.0009521190077066422,-0.01444477587938309,-0.0003322958946228027,XArbitraryZVertical,0.03006488718053927,0.004190649547938192,-0.0009079542840619674,0.9995387844822642,0.008432028815150261,-0.0600944310426712,-0.9981570839881897,0,0,0,-1,-1,,,,,,,,,,,,,,,,,,1,0.71
2021-12-13 15:36:57.072 -0500,,,,,,,,,,15724.065442625,0.006103515625,-0.062225341796875,-1.008193969726562,15724.055502625,-0.001201506824681909,0.008621917393399337,0.06001876796889308,-0.02487470954656601,0.04538356885313988,0.09056094288825989,0.001632353290915489,-0.01811176538467407,0.01047617197036743,XArbitraryZVertical,0.03000718618368986,0.004290978462104912,-0.000471127947030265,0.9995403017480826,0.008606286719441414,-0.05998273938894272,-0.9981623291969299,0,0,0,-1,-1,,,,,,,,,,,,,,,,,,1,0.71
2021-12-13 15:36:57.082 -0500,,,,,,,,,,15724.075383625,0.0041046142578125,-0.0627288818359375,-1.003646850585938,15724.065442625,-0.0001965228498251668,0.008692941215234411,0.05981009851391775,0.009695252403616905,0.03446167707443237,0.1112805977463722,-0.000941089354455471,-0.01578710228204727,0.007634639739990234,XArbitraryZVertical,0.02990073645290357,0.004341575467530091,3.174507342472085e-05,0.9995434406824689,0.008677287958562374,-0.05977444723248482,-0.9981741905212402,0,0,0,-1,-1,,,,,,,,,,,,,,,,,,1,0.71
2021-12-13 15:36:57.092 -0500,,,,,,,,,,15724.085323625,0.0092315673828125,-0.0617523193359375,-1.002655029296875,15724.075383625,0.0008631284819034129,0.008673327162106554,0.05976723583417159,-0.006169464439153671,0.0123867355287075,0.09888385236263275,-0.002554223872721195,-0.002493705600500107,-0.0100170373916626,XArbitraryZVertical,0.02987701757193231,0.004347608262416078,0.0005609430247040872,0.9995439115748185,0.008657732047140598,-0.05973165854811668,-0.9981769323348999,0,0,0,-1,-1,,,,,,,,,,,,,,,,,,1,0.71
2021-12-13 15:36:57.102 -0500,,,,,,,,,,15724.095263625,0.0146636962890625,-0.0596160888671875,-1.011154174804688,15724.085323625,0.001808278142217762,0.008468191314984068,0.05974847363185785,-0.0234653651714325,-0.02352279424667358,0.08786928653717041,-0.004348373040556908,-0.003015976399183273,-0.005467057228088379,XArbitraryZVertical,0.02986568680677934,0.004259198205332446,0.001030198546342644,0.9995443194633947,0.008452979847788811,-0.05971293151378632,-0.9981797933578491,0,0,0,-1,-1,,,,,,,,,,,,,,,,,,1,0.71
2021-12-13 15:36:57.112 -0500,,,,,,,,,,15724.105203625,0.0149688720703125,-0.05999755859375,-1.006988525390625,15724.095263625,0.002567851302837668,0.008041498487061162,0.05941549597882154,-0.05091775953769684,-0.05149298161268234,0.05774413794279099,0.001204337924718857,-0.002371795475482941,-0.004451870918273926,XArbitraryZVertical,0.02969795268600881,0.004057097433320923,0.001402777757503623,0.9995497375787675,0.008027222007513046,-0.05938054248690605,-0.9982031583786011,0,0,0,-1,-1,,,,,,,,,,,,,,,,,,1,0.71
2021-12-13 15:36:57.122 -0500,,,,,,,,,,15724.115144625,0.014862060546875,-0.064453125,-0.9837646484375,15724.105203625,0.003037973375774707,0.007340051098602472,0.05921591595832115,-0.02829500660300255,-0.04796881973743439,0.04226931184530258,0.007336568553000689,-0.0004347972571849823,-0.01293379068374634,XArbitraryZVertical,0.02959782501964581,0.003713371581772796,0.00162695575657584,0.9995537170636266,0.007327119819819927,-0.05918131396174431,-0.9982203841209412,0,0,0,-1,-1,,,,,,,,,,,,,,,,,,1,0.71
2021-12-13 15:36:57.132 -0500,,,,,,,,,,15724.125084625,0.01336669921875,-0.06195068359375,-1.001083374023438,15724.115144625,0.003525270131823182,0.006947679177645851,0.05892441953706786,-0.0588981881737709,0.00451253354549408,0.04852361232042313,0.008033299818634987,-0.001107253134250641,-0.008748173713684082,XArbitraryZVertical,0.02945160511052691,0.003524243080394115,0.001864190494131335,0.9995582084640561,0.006935565266758204,-0.05889032781124115,-0.9982403516769409,0,0,0,-1,-1,,,,,,,,,,,,,,,,,,1,0.71
2021-12-13 15:36:57.142 -0500,,,,,,,,,,15724.135024625,0.009246826171875,-0.068267822265625,-1.006210327148438,15724.125084625,0.003939657042074769,0.007138999492332827,0.05863001921050229,-0.0680975466966629,0.02550862915813923,0.03592845797538757,0.007735380902886391,-0.005856715142726898,0.01449167728424072,XArbitraryZVertical,0.02930353959139143,0.003625688514584495,0.002073592897770638,0.9995618188920881,0.007126672193408012,-0.05859643593430519,-0.9982563257217407,0,0,0,-1,-1,,,,,,,,,,,,,,,,,,1,0.71
2021-12-13 15:36:57.151 -0500,,,,,,,,,,15724.144964625,0.00274658203125,-0.057159423828125,-1.009796142578125,15724.135024625,0.004312417812363824,0.007516853027830415,0.0584436267717411,-0.05674262344837189,0.03659190610051155,0.04166889935731888,0.005862743128091097,-0.003540344536304474,-0.002818942070007324,XArbitraryZVertical,0.02920927849982211,0.003819803034620928,0.002265083237424127,0.999563504131836,0.007503948640078306,-0.05841036140918732,-0.9982644319534302,0,0,0,-1,-1,,,,,,,,,,,,,,,,,,1,0.71
2021-12-13 15:36:57.161 -0500,,,,,,,,,,15724.154905625,0.0027618408203125,-0.0469512939453125,-1.007949829101562,15724.144964625,0.004738433251600166,0.007839177567926554,0.05830977273324191,-0.06094243377447128,0.03412262350320816,0.04274960979819298,0.001421043649315834,-0.009991109371185303,-0.007940530776977539,XArbitraryZVertical,0.02914116728947383,0.003986965778233454,0.002482447651064073,0.9995643004195539,0.007825774140655994,-0.05827673524618149,-0.99826979637146,0,0,0,-1,-1,,,,,,,,,,,,,,,,,,1,0.71
2021-12-13 15:36:57.172 -0500,,,,,,,,,,15724.164845625,0.00469970703125,-0.04534912109375,-1.0096435546875,15724.154905625,0.005155125721377466,0.008136676810581774,0.05778561963301979,-0.05259795114398003,0.03491488099098206,0.04217210412025452,-0.005376431159675121,0.000594019889831543,-0.01149833202362061,XArbitraryZVertical,0.02887797069380067,0.004141077308383169,0.002693991314355368,0.9995708173432596,0.008123005740344524,-0.05775346606969833,-0.9982978105545044,0,0,0,-1,-1,,,,,,,,,,,,,,,,,,1,0.71
2021-12-13 15:36:57.182 -0500,,,,,,,,,,15724.174785625,0.008026123046875,-0.0484161376953125,-1.0018310546875,15724.164845625,0.005551867276990595,0.008420873362444473,0.05741453887248547,-0.04476266354322433,0.0488075278699398,0.03619437292218208,-0.005645064637064934,0.0104316845536232,-0.009633004665374756,XArbitraryZVertical,0.0286912787807809,0.004288350976202181,0.002895614462961001,0.9995749206480082,0.008406898006796837,-0.05738300085067749,-0.9983168244361877,0,0,0,-1,-1,,,,,,,,,,,,,,,,,,1,0.71
2021-12-13 15:36:57.192 -0500,,,,,,,,,,15724.184725625,0.01055908203125,-0.0569000244140625,-0.9994964599609375,15724.174785625,0.005879111422424536,0.00890524805059476,0.05711544128954883,-0.03583122044801712,0.04645625501871109,0.03177499026060104,-0.004190909676253796,0.01173524931073189,-0.011313796043396,XArbitraryZVertical,0.02854034970362275,0.00453470926085277,0.003065462345020836,0.999577643079527,0.008890609256923199,-0.05708439275622368,-0.998329758644104,0,0,0,-1,-1,,,,,,,,,,,,,,,,,,1,0.71
2021-12-13 15:36:57.202 -0500,,,,,,,,,,15724.194665625,0.0036163330078125,-0.058837890625,-1.015274047851562,15724.184725625,0.006166139622042559,0.009361781371719863,0.05659794957259946,-0.06867519021034241,0.01935406401753426,0.01979769021272659,-0.00132053904235363,0.008151579648256302,-0.00347602367401123,XArbitraryZVertical,0.02828032768057784,0.004766212156228674,0.003214242350732532,0.9995835013565256,0.009346654638648033,-0.05656773597002029,-0.9983550310134888,0,0,0,-1,-1,,,,,,,,,,,,,,,,,,1,0.71
2021-12-13 15:36:57.211 -0500,,,,,,,,,,15724.204606625,0.00421142578125,-0.0523529052734375,-1.015106201171875,15724.194665625,0.006270170807848708,0.009365216491327908,0.05604490056608125,-0.05368771404027939,-0.03954007476568222,0.003351871855556965,0.001208697445690632,-0.0008844807744026184,-0.001110315322875977,XArbitraryZVertical,0.02800366330260311,0.004768569858174697,0.003265014897727896,0.9995911226237882,0.009350375272333622,-0.05601556599140167,-0.9983860850334167,0,0,0,-1,-1,,,,,,,,,,,,,,,,,,1,0.71
2021-12-13 15:36:57.221 -0500,,,,,,,,,,15724.214546625,0.0037994384765625,-0.0562896728515625,-1.01580810546875,15724.204606625,0.006279596563302256,0.008927040938161632,0.05580987393751105,-0.03379043936729431,-0.07269936054944992,-0.002338770311325788,-0.005296697840094566,-0.003057006746530533,-0.01687079668045044,XArbitraryZVertical,0.02788689032103112,0.004549349290798465,0.003263076450983261,0.9995954341212792,0.008913023397326469,-0.05578090623021126,-0.9984032511711121,0,0,0,-1,-1,,,,,,,,,,,,,,,,,,1,0.71
2021-12-13 15:36:57.231 -0500,,,,,,,,,,15724.224486625,0.002349853515625,-0.0659332275390625,-1,15724.214546625,0.006189595090339464,0.008181898367924718,0.05575588088074403,-0.001821854151785374,-0.09842999279499054,-0.01411939691752195,-0.003957675769925117,0.003374073654413223,-0.01669353246688843,XArbitraryZVertical,0.02786130608370262,0.004175592979232912,0.003207595663260798,0.9995979684999609,0.008169093169271946,-0.05572699755430222,-0.9984126091003418,0,0,0,-1,-1,,,,,,,,,,,,,,,,,,1,0.71
2021-12-13 15:36:57.241 -0500,,,,,,,,,,15724.234426625,0.00579833984375,-0.0599365234375,-0.9951019287109375,15724.224486625,0.006065563209181018,0.007209614508652631,0.05610301263571918,0.01752228289842606,-0.09608401358127594,-0.007274007424712181,-0.003398777917027473,-0.0002161078155040741,-0.01740741729736328,XArbitraryZVertical,0.02803658911575831,0.003688427076922146,0.00313267056019256,0.9995951473886497,0.007198208943009377,-0.05607358738780022,-0.9984006881713867,0,0,0,-1,-1,,,,,,,,,,,,,,,,,,1,0.71
2021-12-13 15:36:57.251 -0500,,,,,,,,,,15724.244367625,0.012969970703125,-0.0562591552734375,-1.011032104492188,15724.234426625,0.005973316311324276,0.006239145125371864,0.05627286154654641,0.01723812334239483,-0.08342527598142624,-0.01576949097216129,-0.003879382740706205,-0.009690079838037491,-0.001602292060852051,XArbitraryZVertical,0.02812314261981167,0.003202341121539395,0.003073218567093666,0.9995946177120298,0.006229228805750608,-0.0562431663274765,-0.9983976483345032,0,0,0,-1,-1,,,,,,,,,,,,,,,,,,1,0.71
2021-12-13 15:36:57.261 -0500,,,,,,,,,,15724.254307625,0.01605224609375,-0.0605316162109375,-1.005584716796875,15724.244367625,0.005813054392457507,0.005275987146823889,0.05644177679939606,0.06340242177248001,-0.09598261117935181,-0.01427812129259109,0.000530770979821682,-0.00352473184466362,0.003291785717010498,XArbitraryZVertical,0.0282092605564126,0.002718942428029222,0.002979791867593805,0.999593913072049,0.005267560947686434,-0.05641181394457817,-0.998393714427948,0,0,0,-1,-1,,,,,,,,,,,,,,,,,,1,0.71
2021-12-13 15:36:57.271 -0500,,,,,,,,,,15724.264247625,0.0103302001953125,-0.0510406494140625,-0.98175048828125,15724.254307625,0.005731421378404851,0.004347246786900543,0.05698537845277809,0.09049183130264282,-0.08502044528722763,-0.002301086904481053,0.008629786781966686,0.0006953626871109009,-0.01266473531723022,XArbitraryZVertical,0.02848242280493959,0.002254370907811774,0.0029264604645961,0.999587490185895,0.004340176470577717,-0.05695454031229019,-0.9983673095703125,0,0,0,-1,-1,,,,,,,,,,,,,,,,,,1,0.71
2021-12-13 15:36:57.281 -0500,,,,,,,,,,15724.274187625,0.0155181884765625,-0.0473480224609375,-0.9997406005859375,15724.264247625,0.005640370775000449,0.003719963858843251,0.05733826644784651,0.01778220757842064,-0.054932851344347,-0.01503206230700016,0.01233839709311724,-0.003224786370992661,-0.00723499059677124,XArbitraryZVertical,0.02865979797745126,0.001940049997857905,0.002872334267588629,0.9995832565116892,0.003713842015713453,-0.05730685219168663,-0.9983497262001038,0,0,0,-1,-1,,,,,,,,,,,,,,,,,,1,0.71
2021-12-13 15:36:57.291 -0500,,,,,,,,,,15724.284128625,0.0055084228515625,-0.0565338134765625,-1.016098022460938,15724.274187625,0.005454256840037772,0.003316202954799984,0.05712436645662525,-0.05532875657081604,-0.06700322777032852,-0.02526632323861122,0.007019405253231525,0.006052631884813309,0.01661288738250732,XArbitraryZVertical,0.02855363446597392,0.001735300212350476,0.002773361340869238,0.9995869070504647,0.003310787724331021,-0.0570933036506176,-0.9983633756637573,0,0,0,-1,-1,,,,,,,,,,,,,,,,,,1,0.71
2021-12-13 15:36:57.301 -0500,,,,,,,,,,15724.294068625,0.0047607421875,-0.056640625,-1.01898193359375,15724.284128625,0.005165838371920308,0.002786875569833636,0.05656153700977152,-0.04388648271560669,-0.02606351673603058,-0.0245153121650219,0.012735765427351,0.009183339774608612,-0.001343607902526855,XArbitraryZVertical,0.02827327805600307,0.001465912464768272,0.002621282936323778,0.9995957648956502,0.002782415365800261,-0.0565313845872879,-0.9983969330787659,0,0,0,-1,-1,,,,,,,,,,,,,,,,,,1,0.71
2021-12-13 15:36:57.311 -0500,,,,,,,,,,15724.304008625,-0.013275146484375,-0.037322998046875,-1.0220947265625,15724.294068625,0.005022790145051918,0.003192491179370899,0.05602123548590302,-0.06593133509159088,0.1410024613142014,-0.009147141128778458,0.002320938277989626,-0.0005418993532657623,-0.01767188310623169,XArbitraryZVertical,0.02800282348578731,0.001665950061448186,0.002555109872212944,0.9996032024772921,0.003187477355822921,-0.05599193647503853,-0.9984261393547058,0,0,0,-1,-1,,,,,,,,,,,,,,,,,,1,0.71
2021-12-13 15:36:57.321 -0500,,,,,,,,,,15724.313948625,-0.0069122314453125,-0.0671539306640625,-1.007598876953125,15724.304008625,0.004719571890967503,0.004430025897338897,0.05507286977801686,-0.1104210317134857,0.08544999361038208,-0.05400675907731056,0.0003374391235411167,-0.001595612615346909,-0.0205078125,XArbitraryZVertical,0.02752758437882637,0.002279136780169473,0.002419868856701528,0.9996155726873753,0.004423295147716999,-0.05504503473639488,-0.9984740614891052,0,0,0,-1,-1,,,,,,,,,,,,,,,,,,1,0.71
2021-12-13 15:36:57.331 -0500,,,,,,,,,,15724.323889625,-0.009307861328125,-0.0623779296875,-1.014938354492188,15724.313948625,0.004272776151363514,0.005102540884643393,0.05426991737400828,-0.09311901032924652,0.0724487379193306,-0.03367046266794205,-0.01837015897035599,0.01692026108503342,-0.02357995510101318,XArbitraryZVertical,0.02712603111927121,0.002608286206635661,0.002204813003412541,0.9996261521202964,0.005095006432384253,-0.05424328148365021,-0.9985147714614868,0,0,0,-1,-1,,,,,,,,,,,,,,,,,,1,0.71
2021-12-13 15:36:57.341 -0500,,,,,,,,,,15724.333829625,-0.003204345703125,-0.055938720703125,-1.019546508789062,15724.323889625,0.003923259377907704,0.005780376301651964,0.05358964378852096,-0.07108374685049057,0.04865472763776779,-0.04489222168922424,-0.01268428564071655,-0.01358995214104652,-0.009051084518432617,XArbitraryZVertical,0.02678578702980576,0.002941696331900108,0.002038348827072288,0.9996347086910021,0.005772045813500881,-0.05356399714946747,-0.9985477328300476,0,0,0,-1,-1,,,,,,,,,,,,,,,,,,1,0.71
2021-12-13 15:36:57.351 -0500,,,,,,,,,,15724.343769625,0.0073699951171875,-0.0546417236328125,-0.9995574951171875,15724.333829625,0.003466958757546102,0.006408334895127986,0.05301453790023866,-0.04881412908434868,0.05287674069404602,-0.03900650516152382,-0.01570715755224228,-0.009388245642185211,-0.01636379957199097,XArbitraryZVertical,0.0264984373844971,0.003248975799151546,0.001817784215303389,0.9996418937797784,0.006399287842214108,-0.05298970639705658,-0.9985745549201965,0,0,0,-1,-1,,,,,,,,,,,,,,,,,,1,0.71
2021-12-13 15:36:57.361 -0500,,,,,,,,,,15724.353709625,0.0120697021484375,-0.0514373779296875,-1.001907348632812,15724.343769625,0.003278614055575901,0.007447674913508731,0.05280739881413995,-0.0231657586991787,0.1135539337992668,0.0006152079440653324,-0.01064157765358686,-0.003155883401632309,-0.02096819877624512,XArbitraryZVertical,0.02639431077609011,0.003765804311345616,0.001737034845363278,0.9996430047037904,0.00743722403421998,-0.05278285965323448,-0.9985783100128174,0,0,0,-1,-1,,,,,,,,,,,,,,,,,,1,0.71
2021-12-13 15:36:57.371 -0500,,,,,,,,,,15724.363649625,0.0067291259765625,-0.057098388671875,-0.9968719482421875,15724.353709625,0.003356600608181073,0.008657857889682164,0.0526748753183949,-0.008928765542805195,0.1064401268959045,0.01135906577110291,-0.001275753602385521,-0.001991227269172668,-0.0009819269180297852,XArbitraryZVertical,0.02632684745952379,0.004371604789024709,0.001791701028396021,0.9996421821806922,0.008645741268992424,-0.05265051871538162,-0.9985755681991577,0,0,0,-1,-1,,,,,,,,,,,,,,,,,,1,0.71
2021-12-13 15:36:57.380 -0500,,,,,,,,,,15724.373590625,0.0075836181640625,-0.054412841796875,-0.9934844970703125,15724.363649625,0.003395696378807396,0.009554623685015766,0.05239038288686748,-0.01813584566116333,0.0486210361123085,-0.003268879372626543,0.002528325654566288,0.0009290203452110291,-0.003324985504150391,XArbitraryZVertical,0.02618375147220021,0.004820117795219817,0.001822373203884682,0.9996438380439022,0.009541369043290615,-0.05236642062664032,-0.9985823631286621,0,0,0,-1,-1,,,,,,,,,,,,,,,,,,1,0.71
2021-12-13 15:36:57.391 -0500,,,,,,,,,,15724.383530625,0.010833740234375,-0.052215576171875,-0.99713134765625,15724.373590625,0.003279288159267574,0.009838278300694572,0.0524237907340523,0.01509747467935085,0.02964981086552143,-0.01838444918394089,-0.003095486201345921,-0.004698626697063446,0.001705944538116455,XArbitraryZVertical,0.02620047772731289,0.004960395442187689,0.001767984698819655,0.9996428778540047,0.009824603796005249,-0.05239978060126305,-0.9985778331756592,0,0,0,-1,-1,,,,,,,,,,,,,,,,,,1,0.71
2021-12-13 15:36:57.400 -0500,,,,,,,,,,15724.393470625,0.0126800537109375,-0.0485687255859375,-0.985107421875,15724.383530625,0.003096441326239061,0.009978400108414658,0.05274292022292357,0.03025379031896591,0.02445105649530888,-0.01423417869955301,-0.002380748279392719,-0.001694396138191223,0.005075216293334961,XArbitraryZVertical,0.02636032193686463,0.005028262161047029,0.001679218981556777,0.9996384552948843,0.009964358992874622,-0.05271847173571587,-0.9985597133636475,0,0,0,-1,-1,,,,,,,,,,,,,,,,,,1,0.71
2021-12-13 15:36:57.410 -0500,,,,,,,,,,15724.403410625,0.0100250244140625,-0.045745849609375,-0.9952392578125,15724.393470625,0.003013225545950305,0.009742940846117893,0.05275065472294616,0.04303483292460442,0.0306618120521307,-0.009532367810606956,0.001104498282074928,0.0005105957388877869,0.001430273056030273,XArbitraryZVertical,0.02636458795289964,0.004909483267122045,0.001634541267335886,0.9996390696820909,0.009729234501719475,-0.05272619426250458,-0.9985616207122803,0,0,0,-1,-1,,,,,,,,,,,,,,,,,,1,0.71
2021-12-13 15:36:57.420 -0500,,,,,,,,,,15724.413351625,0.0085906982421875,-0.04925537109375,-1.001358032226562,15724.403410625,0.002881976767691837,0.009816416800564753,0.05346740445035086,0.04410089552402496,0.05239267647266388,-0.02277919836342335,0.002877814695239067,0.004873186349868774,0.01341545581817627,XArbitraryZVertical,0.02672309656736877,0.004944947383704824,0.001571653818413052,0.9996294657812195,0.009802231565117836,-0.05344193428754807,-0.9985228180885315,0,0,0,-1,-1,,,,,,,,,,,,,,,,,,1,0.71
2021-12-13 15:36:57.430 -0500,,,,,,,,,,15724.423291625,0.0026092529296875,-0.049346923828125,-1.000442504882812,15724.413351625,0.002650386288247824,0.009873631899848143,0.0541149351225587,0.05487657710909843,0.03814509510993958,-0.02699844352900982,0.0001659989356994629,0.008342653512954712,0.003248214721679688,XArbitraryZVertical,0.02704727350807952,0.00497083619719449,0.001458252367323849,0.9996207117469282,0.00985901802778244,-0.0540885254740715,-0.9984874725341797,0,0,0,-1,-1,,,,,,,,,,,,,,,,,,1,0.71
2021-12-13 15:36:57.440 -0500,,,,,,,,,,15724.433231625,0.00689697265625,-0.0561676025390625,-0.9875335693359375,15724.423291625,0.002424155887129402,0.009685228298554116,0.05466418864513588,0.05121526494622231,-0.01136786118149757,-0.01951362937688828,-0.001079919748008251,0.005381572991609573,-0.002898573875427246,XArbitraryZVertical,0.02732248455154486,0.004873907265431795,0.001343952487062001,0.999613846664133,0.009670610539615154,-0.05463697016239166,-0.9984594583511353,0,0,0,-1,-1,,,,,,,,,,,,,,,,,,1,0.71
2021-12-13 15:36:57.450 -0500,,,,,,,,,,15724.443171625,0.0037994384765625,-0.063751220703125,-0.9867706298828125,15724.433231625,0.002251664165410028,0.009547247475257615,0.05527652897208574,0.07015246897935867,-0.006507692858576775,-0.01061933673918247,-0.00692327506840229,0.005901437252759933,-0.002015352249145508,XArbitraryZVertical,0.02762904201087895,0.004802891326521151,0.001257306385152514,0.9996058914304133,0.009532520547509193,-0.05524838343262672,-0.998427152633667,0,0,0,-1,-1,,,,,,,,,,,,,,,,,,1,0.71
2021-12-13 15:36:57.460 -0500,,,,,,,,,,15724.453112625,0.0070648193359375,-0.052978515625,-0.99700927734375,15724.443171625,0.00219384935978818,0.009608518114799366,0.05575005222177483,0.04106169566512108,0.006375614553689957,-0.0005880082026124001,-0.002696477808058262,-0.0004464499652385712,0.01086670160293579,XArbitraryZVertical,0.02786580970143176,0.004832943735265804,0.001230386556407118,0.9995992466462901,0.00959344208240509,-0.05572117865085602,-0.9984002709388733,0,0,0,-1,-1,,,,,,,,,,,,,,,,,,1,0.71
2021-12-13 15:36:57.470 -0500,,,,,,,,,,15724.463052625,0.0013580322265625,-0.0529632568359375,-1.003814697265625,15724.453112625,0.00216594831361735,0.009644081369734114,0.0561882731597273,0.04292404651641846,0.007112709805369377,-0.006631786003708839,-0.005829282104969025,-0.007592525333166122,0.01160484552383423,XArbitraryZVertical,0.02808487641786431,0.004850536932118177,0.001217986568040792,0.9995930848004552,0.009628712199628353,-0.05615871399641037,-0.998375415802002,0,0,0,-1,-1,,,,,,,,,,,,,,,,,,1,0.71
2021-12-13 15:36:57.484 -0500,,,,,,,,,,15724.472992625,-0.0019378662109375,-0.05645751953125,-1.004745483398438,15724.463052625,0.002046984102756894,0.009734337417646736,0.05649513521558536,0.0224057212471962,0.01444732211530209,-0.01789775490760803,-0.002653841860592365,0.003486547619104385,0.001348018646240234,XArbitraryZVertical,0.02823848114172566,0.004894112019171093,0.001160538164560191,0.9995886026985354,0.009718653745949268,-0.05646508559584618,-0.9983572959899902,0,0,0,-1,-1,,,,,,,,,,,,,,,,,,1,0.71
2021-12-13 15:36:57.499 -0500,,,,,,,,,,15724.482932625,0.0015106201171875,-0.0676422119140625,-1.005035400390625,15724.472992625,0.001834067680943195,0.009782468345547064,0.0566741661414337,0.04136769473552704,-0.01105597242712975,-0.01841787248849869,-0.008408581838011742,0.003680553287267685,-0.005468010902404785,XArbitraryZVertical,0.02832845432940764,0.004915230859313121,0.001055238639905962,0.9995860993503402,0.009766606613993645,-0.05664383247494698,-0.9983466863632202,0,0,0,-1,-1,,,,,,,,,,,,,,,,,,1,0.71
2021-12-13 15:36:57.500 -0500,,,,,,,,,,15724.492872625,0.00775146484375,-0.0672454833984375,-1.001495361328125,15724.482932625,0.001615565400653304,0.00969256322321738,0.05702046557957521,0.064962238073349,-0.02436751686036587,-0.02004612796008587,-0.01161453407257795,0.0005320310592651367,-0.006417572498321533,XArbitraryZVertical,0.02850211217560776,0.004867318059505081,0.0009455941171709788,0.9995814780025234,0.009676659479737282,-0.05698957294225693,-0.9983278512954712,0,0,0,-1,-1,,,,,,,,,,,,,,,,,,1,0.71
2021-12-13 15:36:57.509 -0500,,,,,,,,,,15724.502813625,0.0042724609375,-0.056060791015625,-0.9976959228515625,15724.492872625,0.001431718132372027,0.009415992133781104,0.05753162775731871,0.07446972280740738,-0.0357547253370285,-0.01883412338793278,-0.007889661937952042,-0.01014234125614166,-0.006734132766723633,XArbitraryZVertical,0.02875815235507417,0.00472661901517421,0.0008509650629299065,0.9995748460273061,0.009400274604558945,-0.05749989673495293,-0.9983012676239014,0,0,0,-1,-1,,,,,,,,,,,,,,,,,,1,0.71
2021-12-13 15:36:57.519 -0500,,,,,,,,,,15724.512753625,0.0144805908203125,-0.0529632568359375,-0.9968414306640625,15724.502813625,0.001190384694741013,0.009000808002128654,0.05792734625536226,0.04539332911372185,-0.04754693806171417,-0.02655595913529396,-0.001234131865203381,-0.009350549429655075,-0.003213107585906982,XArbitraryZVertical,0.02895664665621708,0.004515736652578556,0.0007252661558802553,0.999570246162434,0.008985589258372784,-0.05789495632052422,-0.998282253742218,0,0,0,-1,-1,,,,,,,,,,,,,,,,,,1,0.71
2021-12-13 15:36:57.529 -0500,,,,,,,,,,15724.522693625,0.017608642578125,-0.058135986328125,-0.9939422607421875,15724.512753625,0.0009806034898504495,0.008335152564428223,0.0581179710277941,0.03773727267980576,-0.06352274119853973,-0.01342431083321571,-0.004048530012369156,0.002024441957473755,0.0005810260772705078,XArbitraryZVertical,0.02905259674229558,0.004180049649719645,0.0006111785749965785,0.9995689895923116,0.008320983499288559,-0.05808525905013084,-0.998276948928833,0,0,0,-1,-1,,,,,,,,,,,,,,,,,,1,0.71
2021-12-13 15:36:57.539 -0500,,,,,,,,,,15724.532633625,0.0078277587890625,-0.059051513671875,-0.9930572509765625,15724.522693625,0.001059000642193548,0.007556447481725972,0.05852965405281552,0.04631105437874794,-0.08509727567434311,0.02722245082259178,0.006937147118151188,0.005532961338758469,0.001417696475982666,XArbitraryZVertical,0.02925843792118968,0.003792089938504242,0.000639822816099346,0.9995644623534381,0.007543436251580715,-0.05849624052643776,-0.9982591271400452,0,0,0,-1,-1,,,,,,,,,,,,,,,,,,1,0.71
2021-12-13 15:36:57.549 -0500,,,,,,,,,,15724.542574625,0.000732421875,-0.0554656982421875,-1.008651733398438,15724.532633625,0.001465271288667966,0.006576173096182883,0.05909890545370543,0.04223774746060371,-0.09483872354030609,0.04925930872559547,0.01104399003088474,0.0009284988045692444,0.004290342330932617,XArbitraryZVertical,0.02954257887258731,0.003308290235634155,0.0008294586656947371,0.9995576430328178,0.00656464509665966,-0.05906450748443604,-0.9982326030731201,0,0,0,-1,-1,,,,,,,,,,,,,,,,,,1,0.71
2021-12-13 15:36:57.559 -0500,,,,,,,,,,15724.552514625,0.001373291015625,-0.0581207275390625,-1.022186279296875,15724.542574625,0.001930867500213544,0.005396908329802741,0.05949948224457006,0.06916417181491852,-0.1398733109235764,0.04338730499148369,0.002440419048070908,0.0004128441214561462,0.005158662796020508,XArbitraryZVertical,0.02974262820942207,0.002725972782329888,0.00104526928456539,0.999553279650656,0.005387331824749708,-0.05946438014507294,-0.998215913772583,0,0,0,-1,-1,,,,,,,,,,,,,,,,,,1,0.71
2021-12-13 15:36:57.569 -0500,,,,,,,,,,15724.562454625,-0.004425048828125,-0.061981201171875,-1.01971435546875,15724.552514625,0.002272570149947863,0.003655219704035717,0.06022340341783868,0.09862779080867767,-0.1870857924222946,0.02869744226336479,-0.002916170516982675,0.004721283912658691,-0.01047128438949585,XArbitraryZVertical,0.0301050082588106,0.001860989545137587,0.001190791987562657,0.9995442248887845,0.003648585174232721,-0.06018700823187828,-0.9981804490089417,0,0,0,-1,-1,,,,,,,,,,,,,,,,,,1,0.71
2021-12-13 15:36:57.579 -0500,,,,,,,,,,15724.572394625,-0.0087738037109375,-0.0595245361328125,-1.0234375,15724.562454625,0.002487443468598173,0.001472454143700587,0.06109205159753145,0.1008395403623581,-0.2257325202226639,0.01063295360654593,-9.642296936362982e-05,0.002933308482170105,-0.02405285835266113,XArbitraryZVertical,0.03054032857819311,0.0007738678167101778,0.001265626179105334,0.9995324377435104,0.001469706650823355,-0.0610540583729744,-0.9981333613395691,0,0,0,-1,-1,,,,,,,,,,,,,,,,,,1,0.71
2021-12-13 15:36:57.589 -0500,,,,,,,,,,15724.582335625,-0.01666259765625,-0.063812255859375,-1.042221069335938,15724.572394625,0.002557972972104047,-0.001199820461415432,0.06216829848534715,0.0726715549826622,-0.3238882124423981,0.004155214875936508,-0.003227553563192487,0.0001470372080802917,-0.02164691686630249,XArbitraryZVertical,0.03107988072445254,-0.0005598701331439063,0.001259723424905653,0.9995159192413974,-0.001197502366267145,-0.06212826073169708,-0.9980674386024475,0,0,0,-1,-1,,,,,,,,,,,,,,,,,,1,0.71
2021-12-13 15:36:57.599 -0500,,,,,,,,,,15724.592275625,-0.0053253173828125,-0.0570220947265625,-1.002548217773438,15724.582335625,0.002844742878622877,-0.005363752892452009,0.06187488598114935,-0.09116291999816895,-0.5103790163993835,0.05276323109865189,-0.003420347813516855,0.002310853451490402,-0.02536547183990479,XArbitraryZVertical,0.03093617863799765,-0.002636589860827583,0.001338728238202341,0.9995169776350281,-0.005353462882339954,-0.06183541193604469,-0.9980720281600952,0,0,0,-1,-1,,,,,,,,,,,,,,,,,,1,0.71
2021-12-13 15:36:57.609 -0500,,,,,,,,,,15724.602215625,-4.57763671875e-05,-0.0722198486328125,-0.9942169189453125,15724.592275625,0.003035325133325809,-0.00984789784193759,0.06199921365268951,0.1308898627758026,-0.4407146573066711,0.0008234670385718346,-0.006833785213530064,-0.001852773129940033,-0.04419076442718506,XArbitraryZVertical,0.03100169902388757,-0.004874518698743978,0.001364299162371983,0.9995065434923068,-0.009828818030655384,-0.06195950135588646,-0.9980302453041077,0,0,0,-1,-1,,,,,,,,,,,,,,,,,,1,0.71
2021-12-13 15:36:57.619 -0500,,,,,,,,,,15724.612155625,-0.0106353759765625,-0.042144775390625,-1.00927734375,15724.602215625,0.003189131754701425,-0.01375495952420322,0.06323927196067029,0.140479102730751,-0.4430776834487915,0.0305643193423748,0.00840170681476593,0.006175011396408081,-0.004641532897949219,XArbitraryZVertical,0.03162454126327017,-0.006823569245034225,0.001376305292767048,0.9994755552372219,-0.01372703164815903,-0.06319712847471237,-0.9979066252708435,0,0,0,-1,-1,,,,,,,,,,,,,,,,,,1,0.71
2021-12-13 15:36:57.629 -0500,,,,,,,,,,15724.622096625,-0.017425537109375,-0.06292724609375,-1.009933471679688,15724.612155625,0.003302802639263228,-0.01728631291069179,0.06426570685840026,0.09055707603693008,-0.4205293357372284,0.001706704497337341,0.01720398478209972,-0.00799839198589325,0.003569662570953369,XArbitraryZVertical,0.03214034581749943,-0.008585522231432543,0.001372808781283732,0.9994455539062885,-0.01724976859986782,-0.06422147899866104,-0.9977865815162659,0,0,0,-1,-1,,,,,,,,,,,,,,,,,,1,0.71
2021-12-13 15:36:57.639 -0500,,,,,,,,,,15724.632036625,-0.0298004150390625,-0.072998046875,-1.007247924804688,15724.622096625,0.003292239054339089,-0.02102896943994534,0.0649511924109055,0.07798269391059875,-0.4367461502552032,0.002194062806665897,0.01034769974648952,0.02276073396205902,-0.01160657405853271,XArbitraryZVertical,0.03248534949967331,-0.01045528689340173,0.001303762507518229,0.9994166241130197,-0.02098308131098747,-0.06490553170442581,-0.9976707696914673,0,0,0,-1,-1,,,,,,,,,,,,,,,,,,1,0.71
2021-12-13 15:36:57.649 -0500,,,,,,,,,,15724.641976625,-0.0288238525390625,-0.0745849609375,-1.003799438476562,15724.632036625,0.003276055623850079,-0.0249673573841532,0.06566459890461514,0.1107214689254761,-0.4595655798912048,-0.001590422121807933,0.007485417649149895,0.002690151333808899,-0.01239961385726929,XArbitraryZVertical,0.03284423796925155,-0.01242284431649327,0.001227233698544258,0.9993824701089536,-0.02491096034646034,-0.06561741977930069,-0.9975338578224182,0,0,0,-1,-1,,,,,,,,,,,,,,,,,,1,0.71
2021-12-13 15:36:57.658 -0500,,,,,,,,,,15724.651916625,-0.0386505126953125,-0.0579986572265625,-1.00616455078125,15724.641976625,0.003317254291512675,-0.02945531492126833,0.06646761490696163,0.07756990939378738,-0.5331023931503296,0.009457169100642204,-0.0004143975675106049,-0.006579384207725525,-0.009888887405395508,XArbitraryZVertical,0.03324845446414153,-0.0146638663953848,0.001168183054039849,0.999338845221002,-0.02938602305948734,-0.06641868501901627,-0.997359037399292,0,0,0,-1,-1,,,,,,,,,,,,,,,,,,1,0.71
2021-12-13 15:36:57.668 -0500,,,,,,,,,,15724.661857625,-0.0451812744140625,-0.075775146484375,-0.9937744140625,15724.651916625,0.003135248842610346,-0.03495621655354485,0.06711028375101649,0.05497085303068161,-0.5862253904342651,-0.05309928953647614,0.006046570837497711,-0.007525056600570679,-0.006659984588623047,XArbitraryZVertical,0.0335710623774322,-0.01741477480317966,0.0009801622517536385,0.9992841132487555,-0.03487042710185051,-0.06705991923809052,-0.9971393942832947,0,0,0,-1,-1,,,,,,,,,,,,,,,,,,1,0.71
2021-12-13 15:36:57.678 -0500,,,,,,,,,,15724.671797625,-0.0528106689453125,-0.0680389404296875,-0.9910125732421875,15724.661857625,0.002634645859308408,-0.04102791584452492,0.06759153537772698,0.03121545724570751,-0.6581001281738281,-0.04233931750059128,0.002272229641675949,0.009541399776935577,-0.009287595748901367,XArbitraryZVertical,0.03380920188908351,-0.02045628599880728,0.0006231895481391483,0.9992187484561663,-0.04092274978756905,-0.06754007935523987,-0.9968769550323486,0,0,0,-1,-1,,,,,,,,,,,,,,,,,,1,0.71
2021-12-13 15:36:57.688 -0500,,,,,,,,,,15724.681737625,-0.0596160888671875,-0.056610107421875,-1.0086669921875,15724.671797625,0.002223406383053167,-0.04802594573937009,0.06769707004585165,0.0005816486664116383,-0.7722914814949036,-0.04850307106971741,0.002716243267059326,-0.008129797875881195,0.002784609794616699,XArbitraryZVertical,0.03385897247549849,-0.02395928586392567,0.0002981756727805443,0.9991393273939964,-0.04789752140641212,-0.0676453709602356,-0.9965590238571167,0,0,0,-1,-1,,,,,,,,,,,,,,,,,,1,0.71
2021-12-13 15:36:57.698 -0500,,,,,,,,,,15724.691677625,-0.065521240234375,-0.0671539306640625,-1.014389038085938,15724.681737625,0.001690722927593978,-0.056123866043124,0.06780331541191734,0.01660242676734924,-0.8590604662895203,-0.06115654855966568,0.003154844045639038,-0.0002875775098800659,0.005118787288665771,XArbitraryZVertical,0.03390551260102294,-0.02801347512512368,-0.0001064956622803537,0.999032363998407,-0.05596551671624184,-0.06775137782096863,-0.9961313009262085,0,0,0,-1,-1,,,,,,,,,,,,,,,,,,1,0.71
2021-12-13 15:36:57.708 -0500,,,,,,,,,,15724.701618625,-0.075042724609375,-0.0745849609375,-1.020126342773438,15724.691677625,0.001040768780018179,-0.06474485996202184,0.06813887551329452,0.04322578012943268,-0.9030043482780457,-0.06188079342246056,0.00493340939283371,0.01147603988647461,-0.01307785511016846,XArbitraryZVertical,0.03406182760314694,-0.03233027107498201,-0.0005826943850540979,0.9988965380919144,-0.06454949826002121,-0.0680861622095108,-0.9955890774726868,0,0,0,-1,-1,,,,,,,,,,,,,,,,,,1,0.71
2021-12-13 15:36:57.718 -0500,,,,,,,,,,15724.711558625,-0.0863800048828125,-0.0563201904296875,-1.008941650390625,15724.701618625,0.0007324858690582784,-0.07402400537714353,0.06848169492869041,0.01577844470739365,-0.9876723289489746,-0.008980561047792435,0.008261822164058685,0.001274228096008301,-0.01946508884429932,XArbitraryZVertical,0.03422425233677904,-0.03696932998126683,-0.0009010076946866369,0.9987297981668449,-0.07378306984901428,-0.06842818111181259,-0.9949239492416382,0,0,0,-1,-1,,,,,,,,,,,,,,,,,,1,0.71
2021-12-13 15:36:57.728 -0500,,,,,,,,,,15724.721498625,-0.08935546875,-0.0701141357421875,-0.9981536865234375,15724.711558625,0.000553244692178644,-0.08417324960348535,0.06843613917078591,-0.01746419630944729,-1.055233836174011,-0.03875882923603058,0.0088343545794487,-0.006202250719070435,-0.02599936723709106,XArbitraryZVertical,0.03419272750824184,-0.04204011391242246,-0.001163201246422264,0.9985300129756253,-0.0838770866394043,-0.06838273257017136,-0.9941269755363464,0,0,0,-1,-1,,,,,,,,,,,,,,,,,,1,0.71
2021-12-13 15:36:57.738 -0500,,,,,,,,,,15724.731438625,-0.096466064453125,-0.0850677490234375,-0.991943359375,15724.721498625,9.06019552488341e-06,-0.09456544066928425,0.06836685134557935,-0.0001198281534016132,-1.053637862205505,-0.06472251564264297,0.007823958992958069,0.01199339330196381,-0.01573526859283447,XArbitraryZVertical,0.03413878764696501,-0.04723733961718589,-0.001610846362173533,0.9982988005402263,-0.09420397132635117,-0.0683136060833931,-0.9932063817977905,0,0,0,-1,-1,,,,,,,,,,,,,,,,,,1,0.71
2021-12-13 15:36:57.748 -0500,,,,,,,,,,15724.741379625,-0.1104888916015625,-0.08233642578125,-0.98870849609375,15724.731438625,-0.0006398841495182,-0.1051060543831075,0.06882088676399931,0.07639598846435547,-1.086872696876526,-0.07560686022043228,0.01530881226062775,-0.001347579061985016,-0.006026387214660645,XArbitraryZVertical,0.03433935634930127,-0.05250873152536679,-0.002126494912562133,0.9980276508814481,-0.1046642884612083,-0.06876657158136368,-0.9921272993087769,0,0,0,-1,-1,,,,,,,,,,,,,,,,,,1,0.71
2021-12-13 15:36:57.758 -0500,,,,,,,,,,15724.751319625,-0.128387451171875,-0.06964111328125,-0.9913787841796875,15724.741379625,-0.001392802352043901,-0.1161434056598269,0.0697581264905472,0.0867554172873497,-1.148476719856262,-0.1000988855957985,0.01913455873727798,-0.01536621153354645,-0.001096129417419434,XArbitraryZVertical,0.03477280603028249,-0.05802799866828975,-0.002718741791895424,0.9977054739569319,-0.1156006306409836,-0.06970156729221344,-0.9908472299575806,0,0,0,-1,-1,,,,,,,,,,,,,,,,,,1,0.71
2021-12-13 15:36:57.768 -0500,,,,,,,,,,15724.761259625,-0.1366729736328125,-0.0741729736328125,-0.9878692626953125,15724.751319625,-0.002504216551930615,-0.1274427576470489,0.07065372784410681,0.06198961660265923,-1.142515301704407,-0.1365801990032196,0.01629206538200378,-0.01174148917198181,0.0007069706916809082,XArbitraryZVertical,0.03516812727761569,-0.06368262297512027,-0.00349787145459559,0.9973441491297228,-0.1267809569835663,-0.07059495896100998,-0.9894154667854309,0,0,0,-1,-1,,,,,,,,,,,,,,,,,,1,0.71
2021-12-13 15:36:57.778 -0500,,,,,,,,,,15724.771199625,-0.1498870849609375,-0.069580078125,-0.9901580810546875,15724.761259625,-0.003691938520757073,-0.1386301790580467,0.0712459314699691,0.02835682034492493,-1.146406412124634,-0.1150727719068527,0.009448543190956116,0.001544535160064697,-0.003485143184661865,XArbitraryZVertical,0.03540207618905823,-0.06928112465969181,-0.004307073143312454,0.9969595397835059,-0.1378359943628311,-0.07118567079305649,-0.9878936409950256,0,0,0,-1,-1,,,,,,,,,,,,,,,,,,1,0.71
2021-12-13 15:36:57.788 -0500,,,,,,,,,,15724.781139625,-0.1583251953125,-0.083740234375,-0.97174072265625,15724.771199625,-0.004858627908564373,-0.1502152220145572,0.07181618312743834,0.05813495442271233,-1.208868026733398,-0.133430615067482,0.01259221136569977,-0.002418532967567444,-0.001679003238677979,XArbitraryZVertical,0.03561688670450534,-0.07507539016841297,-0.005114750164833901,0.9965284605509639,-0.1492651849985123,-0.07175446301698685,-0.9861902594566345,0,0,0,-1,-1,,,,,,,,,,,,,,,,,,1,0.71
2021-12-13 15:36:57.798 -0500,,,,,,,,,,15724.791080625,-0.1685028076171875,-0.077239990234375,-0.9664459228515625,15724.781139625,-0.005919804730869141,-0.1622559589824601,0.07251247623849508,0.03814207389950752,-1.228619933128357,-0.09391622245311737,0.01123334467411041,0.00286884605884552,-0.005886077880859375,XArbitraryZVertical,0.03588920727258151,-0.08109234735262331,-0.005885738172380679,0.9960427648288245,-0.1611204296350479,-0.07244894653558731,-0.9842720031738281,0,0,0,-1,-1,,,,,,,,,,,,,,,,,,1,0.71
2021-12-13 15:36:57.808 -0500,,,,,,,,,,15724.801020625,-0.177398681640625,-0.07965087890625,-0.99774169921875,15724.791080625,-0.006668162247973929,-0.1743234476417435,0.07284671496931791,-0.0005552549846470356,-1.22480046749115,-0.0619799941778183,0.0146566778421402,-0.01095795631408691,0.01049143075942993,XArbitraryZVertical,0.03598682132352687,-0.08711413378096432,-0.006489201270345324,0.9955269531458381,-0.1729818880558014,-0.07278230041265488,-0.9822321534156799,0,0,0,-1,-1,,,,,,,,,,,,,,,,,,1,0.71
2021-12-13 15:36:57.818 -0500,,,,,,,,,,15724.810960625,-0.192474365234375,-0.078094482421875,-0.9963836669921875,15724.801020625,-0.007064328531823183,-0.1867697035594232,0.07248847106048026,-0.06881633400917053,-1.27303421497345,-0.007782271597534418,0.0166953057050705,-0.004815012216567993,0.01358276605606079,XArbitraryZVertical,0.03574903225617571,-0.09331479144094568,-0.006893441136379881,0.9949707793109852,-0.185198113322258,-0.07242500782012939,-0.9800286889076233,0,0,0,-1,-1,,,,,,,,,,,,,,,,,,1,0.71
2021-12-13 15:36:57.828 -0500,,,,,,,,,,15724.820900625,-0.207855224609375,-0.080322265625,-0.9928741455078125,15724.810960625,-0.007185636333992968,-0.199166110563282,0.07203376221659084,-0.01882906630635262,-1.230292797088623,-0.0007094484753906727,0.01994022727012634,-0.007679417729377747,-0.02005183696746826,XArbitraryZVertical,0.03547350540850051,-0.09948216711692356,-0.007152641654283969,0.9943810377191709,-0.1973389089107513,-0.07197148352861404,-0.9776898622512817,0,0,0,-1,-1,,,,,,,,,,,,,,,,,,1,0.71
2021-12-13 15:36:57.837 -0500,,,,,,,,,,15724.830841625,-0.2204742431640625,-0.073516845703125,-0.9682769775390625,15724.820900625,-0.007159571597699402,-0.2117907369436142,0.0719566945042413,-0.004241336137056351,-1.332787752151489,0.01797981560230255,0.01719264686107635,-0.00619988888502121,-0.02125751972198486,XArbitraryZVertical,0.03539073255312816,-0.1057565319256234,-0.007359400874949917,0.9937348036767111,-0.209666982293129,-0.07189461588859558,-0.9751260876655579,0,0,0,-1,-1,,,,,,,,,,,,,,,,,,1,0.71
2021-12-13 15:36:57.847 -0500,,,,,,,,,,15724.840781625,-0.2293701171875,-0.0743560791015625,-0.9648590087890625,15724.830841625,-0.006977917993364219,-0.2253132158504119,0.07186145815978227,0.007984703406691551,-1.380216240882874,0.009772753342986107,0.01497983932495117,-0.008522659540176392,-0.02066564559936523,XArbitraryZVertical,0.03530309471428852,-0.1124697600740339,-0.007502981589066109,0.9929994526911879,-0.2228350639343262,-0.0717996209859848,-0.9722084999084473,0,0,0,-1,-1,,,,,,,,,,,,,,,,,,1,0.71
2021-12-13 15:36:57.857 -0500,,,,,,,,,,15724.850721625,-0.2342529296875,-0.0875091552734375,-0.9524688720703125,15724.840781625,-0.007030683384501304,-0.2389245988658145,0.07232271701551528,0.07037963718175888,-1.361820459365845,-0.02894854359328747,0.01556500792503357,-0.001257181167602539,0.0007761716842651367,XArbitraryZVertical,0.03547690617111613,-0.1192258886997249,-0.007796683236113603,0.9922025324021034,-0.2360392510890961,-0.07225968688726425,-0.9690531492233276,0,0,0,-1,-1,,,,,,,,,,,,,,,,,,1,0.71
2021-12-13 15:36:57.867 -0500,,,,,,,,,,15724.860661625,-0.2612762451171875,-0.075927734375,-0.976531982421875,15724.850721625,-0.007060656438219765,-0.2519012770436694,0.07324441079208147,0.09561149030923843,-1.25982666015625,-0.0170130543410778,0.01920729875564575,-0.001177161931991577,0.0009847283363342285,XArbitraryZVertical,0.03588058724540812,-0.1256611174945099,-0.008099354639558666,0.9913911160088156,-0.2485774159431458,-0.07317893952131271,-0.9658437371253967,0,0,0,-1,-1,,,,,,,,,,,,,,,,,,1,0.71
2021-12-13 15:36:57.877 -0500,,,,,,,,,,15724.870602625,-0.28314208984375,-0.0694732666015625,-0.9915618896484375,15724.860661625,-0.006914090107608093,-0.264508943722084,0.07413814568469547,0.08626352995634079,-1.305439710617065,-0.008706388995051384,0.02646425366401672,-0.01343893259763718,0.01010072231292725,XArbitraryZVertical,0.03628115386110313,-0.1319048783956417,-0.008311616174872772,0.9905633500244786,-0.2607171535491943,-0.07407024502754211,-0.962569534778595,0,0,0,-1,-1,,,,,,,,,,,,,,,,,,1,0.71
2021-12-13 15:36:57.887 -0500,,,,,,,,,,15724.880542625,-0.2970123291015625,-0.06488037109375,-0.993194580078125,15724.870602625,-0.00678704832634544,-0.2781657904934177,0.07482914815320049,0.06343197822570801,-1.438882827758789,0.0008278610184788704,0.01254773139953613,-0.001168422400951385,-0.01766210794448853,XArbitraryZVertical,0.03657429333441434,-0.1386628130190821,-0.008544122702745236,0.9896271923752544,-0.2738239765167236,-0.07475933432579041,-0.9588698744773865,0,0,0,-1,-1,,,,,,,,,,,,,,,,,,1,0.71
2021-12-13 15:36:57.897 -0500,,,,,,,,,,15724.890482625,-0.30426025390625,-0.0759735107421875,-0.96612548828125,15724.880542625,-0.006612804656437725,-0.2929284364540056,0.07540695520240386,0.06099918484687805,-1.551431775093079,-0.004808186553418636,0.004794508218765259,0.005862221121788025,-0.03688019514083862,XArbitraryZVertical,0.03680855900630776,-0.1459599045250573,-0.008769824663450148,0.9885666358274554,-0.2879365682601929,-0.07533551007509232,-0.9546816945075989,0,0,0,-1,-1,,,,,,,,,,,,,,,,,,1,0.71
2021-12-13 15:36:57.907 -0500,,,,,,,,,,15724.900422625,-0.3189849853515625,-0.081390380859375,-0.957244873046875,15724.890482625,-0.006552843223442385,-0.3088525471859628,0.07596552205612897,0.03823794797062874,-1.644885182380676,-0.01490196585655212,0.00607675313949585,0.01101209223270416,-0.04325908422470093,XArbitraryZVertical,0.03701794517188053,-0.153824393324702,-0.009075905469746116,0.9873628634742978,-0.303089052438736,-0.07589247822761536,-0.9499354362487793,0,0,0,-1,-1,,,,,,,,,,,,,,,,,,1,0.71
2021-12-13 15:36:57.917 -0500,,,,,,,,,,15724.910363625,-0.3204803466796875,-0.082183837890625,-0.9391021728515625,15724.900422625,-0.006630038672468788,-0.3254745605930239,0.07651901649523736,0.07227234542369843,-1.709999442100525,-0.03542002290487289,0.01456254720687866,0.0004708319902420044,-0.02139890193939209,XArbitraryZVertical,0.03720788282949902,-0.162025598084175,-0.009466076958863799,0.9860393465773671,-0.3188228011131287,-0.0764443650841713,-0.9447265863418579,0,0,0,-1,-1,,,,,,,,,,,,,,,,,,1,0.71
2021-12-13 15:36:57.927 -0500,,,,,,,,,,15724.920303625,-0.3366241455078125,-0.1008148193359375,-0.928985595703125,15724.910363625,-0.006679195600825648,-0.3425566141271847,0.07733468848588863,0.06482721865177155,-1.71077835559845,-0.01733263395726681,0.01590734720230103,-0.004132777452468872,-0.01816105842590332,XArbitraryZVertical,0.03752306723088052,-0.170440964402894,-0.009877132069852952,0.9846035494875921,-0.3348923027515411,-0.07725762575864792,-0.9390838146209717,0,0,0,-1,-1,,,,,,,,,,,,,,,,,,1,0.71
2021-12-13 15:36:57.937 -0500,,,,,,,,,,15724.930243625,-0.3571319580078125,-0.088958740234375,-0.9281005859375,15724.920303625,-0.006376591736569114,-0.3590488818398059,0.07796111145354388,0.07642288506031036,-1.621350765228271,0.03602619469165802,0.02983629703521729,-0.004301697015762329,-0.005714476108551025,XArbitraryZVertical,0.03777530814396005,-0.1785473851139487,-0.01009330370778739,0.9831540677111729,-0.3503166139125824,-0.07788216322660446,-0.9333876967430115,0,0,0,-1,-1,,,,,,,,,,,,,,,,,,1,0.71
2021-12-13 15:36:57.947 -0500,,,,,,,,,,15724.940183625,-0.3761444091796875,-0.076416015625,-0.92938232421875,15724.930243625,-0.005563908980902593,-0.3754219354708531,0.07856567219829969,0.10002301633358,-1.666893839836121,0.06561777740716934,0.02890989184379578,-0.02232997119426727,-0.001502454280853271,XArbitraryZVertical,0.03806397895625119,-0.1865732203989815,-0.01005965428354483,0.9816518098320394,-0.3655340671539307,-0.07848487049341202,-0.9274831414222717,0,0,0,-1,-1,,,,,,,,,,,,,,,,,,1,0.71
2021-12-13 15:36:57.957 -0500,,,,,,,,,,15724.950124625,-0.399810791015625,-0.072235107421875,-0.93408203125,15724.940183625,-0.004501137395490185,-0.3926138086576735,0.0794048554465687,0.1350731402635574,-1.786394476890564,0.06621858477592468,0.02426713705062866,-0.009637318551540375,-0.007099568843841553,XArbitraryZVertical,0.03849093361779943,-0.1949819103177586,-0.009947446104655188,0.980000841310311,-0.3813990950584412,-0.07932143658399582,-0.9210010170936584,0,0,0,-1,-1,,,,,,,,,,,,,,,,,,1,0.71
2021-12-13 15:36:57.967 -0500,,,,,,,,,,15724.960064625,-0.426727294921875,-0.064849853515625,-0.94024658203125,15724.950124625,-0.003551580759554805,-0.4111458826895715,0.08038579253606773,0.09626609832048416,-1.92518138885498,0.0268326960504055,0.02222499251365662,0.003883212804794312,-0.01567894220352173,XArbitraryZVertical,0.03897375295709751,-0.2040327500406124,-0.009939272388433253,0.9781374223452016,-0.3983694016933441,-0.08029924333095551,-0.9137033820152283,0,0,0,-1,-1,,,,,,,,,,,,,,,,,,1,0.71
2021-12-13 15:36:57.982 -0500,,,,,,,,,,15724.970004625,-0.439117431640625,-0.066314697265625,-0.92474365234375,15724.960064625,-0.003422730804421848,-0.4304767371354037,0.08093479809319699,0.03689011931419373,-1.954204797744751,-0.04986101761460304,0.0161273181438446,0.008611336350440979,-0.02828991413116455,XArbitraryZVertical,0.03915757301463225,-0.2134727721938934,-0.01031117494962502,0.9761094874352303,-0.4159380793571472,-0.08084646612405777,-0.9057921171188354,0,0,0,-1,-1,,,,,,,,,,,,,,,,,,1,0.71
2021-12-13 15:36:57.997 -0500,,,,,,,,,,15724.979944625,-0.4659423828125,-0.08447265625,-0.91058349609375,15724.970004625,-0.003924971852783383,-0.4496995631383474,0.08133022039663088,-0.0132990125566721,-1.948219418525696,-0.06615196913480759,0.006530821323394775,0.01639071106910706,-0.04264569282531738,XArbitraryZVertical,0.03919327789412091,-0.2228529512494759,-0.01097567685395626,0.9740020352954678,-0.4332581162452698,-0.08124058693647385,-0.8976008892059326,0,0,0,-1,-1,,,,,,,,,,,,,,,,,,1,0.71
2021-12-13 15:36:57.999 -0500,,,,,,,,,,15724.989885625,-0.4809112548828125,-0.0982818603515625,-0.9187469482421875,15724.979944625,-0.004325996876296243,-0.4693320519303296,0.08151004902387381,0.01626207493245602,-2.019923210144043,-0.01475003361701965,0.01167163252830505,0.01510510593652725,-0.03583413362503052,XArbitraryZVertical,0.03912442960605418,-0.2324102707601093,-0.01157560529791082,0.9717616764093868,-0.4507890045642853,-0.08141981810331345,-0.8889095187187195,0,0,0,-1,-1,,,,,,,,,,,,,,,,,,1,0.71
2021-12-13 15:36:58.007 -0500,,,,,,,,,,15724.999825625,-0.4794464111328125,-0.0875091552734375,-0.8994293212890625,15724.989885625,-0.004088127957084033,-0.4901236688539379,0.08163547331511113,0.03253478556871414,-2.168106555938721,0.03552365675568581,0.003224968910217285,-0.002927839756011963,-0.03124707937240601,XArbitraryZVertical,0.03909161143378873,-0.242494650017962,-0.01188161848214701,0.9692919829377112,-0.4691672921180725,-0.08154483139514923,-0.8793363571166992,0,0,0,-1,-1,,,,,,,,,,,,,,,,,,1,0.71
2021-12-13 15:36:58.017 -0500,,,,,,,,,,15725.009765625,-0.486785888671875,-0.08673095703125,-0.8289947509765625,15724.999825625,-0.003388013620534472,-0.5129382702986767,0.08223457497795045,0.1542849242687225,-2.441206932067871,0.03448475897312164,0.008169889450073242,-0.01613996177911758,-0.05038505792617798,XArbitraryZVertical,0.03933179709049945,-0.2535193587107865,-0.01206434872282337,0.9664550626623913,-0.4890811145305634,-0.08214192092418671,-0.8683618903160095,0,0,0,-1,-1,,,,,,,,,,,,,,,,,,1,0.71
2021-12-13 15:36:58.028 -0500,,,,,,,,,,15725.019706375,-0.50140380859375,-0.1038360595703125,-0.827728271484375,15725.009765625,-0.002185602518432253,-0.5377429725961158,0.08336107119296159,0.1467473804950714,-2.484021186828613,0.06404318660497665,0.03097385168075562,-0.004244610667228699,-0.04354482889175415,XArbitraryZVertical,0.03988130796281213,-0.2654566751445104,-0.01212158136703761,0.9632212723425494,-0.5104202032089233,-0.08326455950737,-0.8558844923973083,0,0,0,-1,-1,,,,,,,,,,,,,,,,,,1,0.71
2021-12-13 15:36:58.037 -0500,,,,,,,,,,15725.029647375,-0.53509521484375,-0.0832672119140625,-0.8520660400390625,15725.019706375,-0.0005189250386459244,-0.5622788525077529,0.08422545616528879,0.2006590813398361,-2.458577156066895,0.1269843280315399,0.04443991184234619,-0.002605065703392029,0.01404857635498047,XArbitraryZVertical,0.04037549694283962,-0.2772150231592712,-0.0119298006949172,0.9598850274496464,-0.5312257409095764,-0.08412590622901917,-0.843043327331543,0,0,0,-1,-1,,,,,,,,,,,,,,,,,,1,0.71
2021-12-13 15:36:58.046 -0500,,,,,,,,,,15725.039587375,-0.5702056884765625,-0.059967041015625,-0.84185791015625,15725.029647375,0.002000211564593508,-0.587416426420728,0.08523186041799986,0.221232533454895,-2.551653623580933,0.1797518134117126,0.0507967472076416,-0.01870737969875336,0.001625478267669678,XArbitraryZVertical,0.04106789236740145,-0.2891998664229324,-0.01137731954121001,0.956319654280095,-0.5522005558013916,-0.08512870222330093,-0.8293537497520447,0,0,0,-1,-1,,,,,,,,,,,,,,,,,,1,0.71
2021-12-13 15:36:58.056 -0500,,,,,,,,,,15725.049527375,-0.56878662109375,-0.0824737548828125,-0.820281982421875,15725.039587375,0.004511158568691502,-0.6132589120845913,0.08608889589751723,0.2187754958868027,-2.59208083152771,0.1289805024862289,0.03830897808074951,0.002715364098548889,-0.03731781244277954,XArbitraryZVertical,0.04170413254275963,-0.3014741401867681,-0.01084041711701304,0.9525001622425403,-0.5734041333198547,-0.08598259836435318,-0.814748227596283,0,0,0,-1,-1,,,,,,,,,,,,,,,,,,1,0.71
2021-12-13 15:36:58.067 -0500,,,,,,,,,,15725.059467375,-0.58837890625,-0.0892791748046875,-0.7774200439453125,15725.049527375,0.006919615577527891,-0.6390857682076572,0.08720569692080941,0.2429884225130081,-2.543792963027954,0.13568314909935,0.02398961782455444,0.02712814509868622,-0.04226654767990112,XArbitraryZVertical,0.04246807370214696,-0.3136889965060938,-0.01041111462413304,0.9485184624426595,-0.5941953063011169,-0.08709520846605301,-0.7995913624763489,0,0,0,-1,-1,,,,,,,,,,,,,,,,,,1,0.71
2021-12-13 15:36:58.076 -0500,,,,,,,,,,15725.069408375,-0.6129302978515625,-0.09130859375,-0.773406982421875,15725.059467375,0.009481906670192624,-0.6632660411566715,0.0884743735445933,0.2625091373920441,-2.283011913299561,0.1134873032569885,0.0444989800453186,0.005885213613510132,-0.03537845611572266,XArbitraryZVertical,0.04335475665242956,-0.3250670953927822,-0.009919991294105472,0.9446445345770038,-0.6132855415344238,-0.08835899084806442,-0.7849035263061523,0,0,0,-1,-1,,,,,,,,,,,,,,,,,,1,0.71
2021-12-13 15:36:58.086 -0500,,,,,,,,,,15725.079348375,-0.6388702392578125,-0.07366943359375,-0.7671661376953125,15725.069408375,0.01196690362442441,-0.6855153959123413,0.09006354757049059,0.2832421064376831,-2.175542831420898,0.08558056503534317,0.04212737083435059,0.0006626397371292114,-0.006464540958404541,XArbitraryZVertical,0.04440614991324889,-0.3354852513184131,-0.009499491675551546,0.9409503058913534,-0.6305062174797058,-0.0899418368935585,-0.770955502986908,0,0,0,-1,-1,,,,,,,,,,,,,,,,,,1,0.71
2021-12-13 15:36:58.096 -0500,,,,,,,,,,15725.089288375,-0.6622772216796875,-0.06976318359375,-0.77557373046875,15725.079348375,0.01427753345381219,-0.7078183253533576,0.09154194035206131,0.236958235502243,-2.310784816741943,0.07744407653808594,0.03452515602111816,0.0001055300235748291,-0.01680606603622437,XArbitraryZVertical,0.04538968714914487,-0.3458891683443048,-0.009167509119984235,0.9371320071055769,-0.6474553942680359,-0.09141413867473602,-0.7566009163856506,0,0,0,-1,-1,,,,,,,,,,,,,,,,,,1,0.71
2021-12-13 15:36:58.106 -0500,,,,,,,,,,15725.099228375,-0.670745849609375,-0.0931854248046875,-0.7588958740234375,15725.089288375,0.01635285249137156,-0.7321016098770491,0.09268052853266291,0.2239153981208801,-2.532567262649536,0.08589454740285873,0.02669525146484375,0.01887844502925873,-0.02658700942993164,XArbitraryZVertical,0.04617662550240821,-0.3571808192381723,-0.008953670467480936,0.9328501506676158,-0.6655654907226562,-0.09254790097475052,-0.7405791878700256,0,0,0,-1,-1,,,,,,,,,,,,,,,,,,1,0.71
2021-12-13 15:36:58.116 -0500,,,,,,,,,,15725.109169375,-0.6839447021484375,-0.0973052978515625,-0.710693359375,15725.099228375,0.01863971858626183,-0.7580258434611616,0.0940666435090239,0.2927314937114716,-2.616261005401611,0.05470307916402817,0.02217257022857666,0.02416477352380753,-0.05258965492248535,XArbitraryZVertical,0.04712189400659934,-0.3691713160503383,-0.008746596337678349,0.9281247756218601,-0.6844497919082642,-0.09392797946929932,-0.7229841351509094,0,0,0,-1,-1,,,,,,,,,,,,,,,,,,1,0.71
2021-12-13 15:36:58.126 -0500,,,,,,,,,,15725.119109375,-0.7010498046875,-0.0959014892578125,-0.68719482421875,15725.109169375,0.02102589833636271,-0.7838132163222203,0.09593954350190279,0.3084177672863007,-2.542664527893066,0.02641244977712631,0.03199273347854614,0.002606987953186035,-0.05392616987228394,XArbitraryZVertical,0.04832411460833141,-0.3810248270371981,-0.008609543157392074,0.9232609326382757,-0.7027385830879211,-0.09579243510961533,-0.7049697041511536,0,0,0,-1,-1,,,,,,,,,,,,,,,,,,1,0.71
2021-12-13 15:36:58.136 -0500,,,,,,,,,,15725.129049375,-0.7063140869140625,-0.118682861328125,-0.667266845703125,15725.119109375,0.02330021764181757,-0.8088688838813859,0.09806031448553429,0.3122713565826416,-2.421346664428711,-0.0210858266800642,0.03608638048171997,0.0005979239940643311,-0.02369242906570435,XArbitraryZVertical,0.04963223163628944,-0.3924744399168717,-0.008587150918537083,0.9183826455644314,-0.7200310230255127,-0.09790323674678802,-0.6870009303092957,0,0,0,-1,-1,,,,,,,,,,,,,,,,,,1,0.71
2021-12-13 15:36:58.146 -0500,,,,,,,,,,15725.138989375,-0.7217864990234375,-0.0990447998046875,-0.6466064453125,15725.129049375,0.02579639874097174,-0.8330269003481173,0.1003048629007911,0.3551594316959381,-2.435373067855835,0.06480298191308975,0.03520166873931885,0.004235252737998962,-0.01793664693832397,XArbitraryZVertical,0.05105318999099653,-0.403440829724671,-0.008499889011578502,0.9135408318714215,-0.7362514734268188,-0.1001367494463921,-0.6692581176757812,0,0,0,-1,-1,,,,,,,,,,,,,,,,,,1,0.71
2021-12-13 15:36:58.156 -0500,,,,,,,,,,15725.148930375,-0.745391845703125,-0.0727386474609375,-0.62823486328125,15725.138989375,0.02908298610402707,-0.8575841292154762,0.1016360100822707,0.3014011383056641,-2.420825719833374,0.1399912089109421,0.0460473895072937,-0.01722176373004913,-0.016376793384552,XArbitraryZVertical,0.05223054431482485,-0.4145201310709535,-0.007909912300767536,0.9085055941987749,-0.7523614168167114,-0.1014611199498177,-0.650890052318573,0,0,0,-1,-1,,,,,,,,,,,,,,,,,,1,0.71
2021-12-13 15:36:58.166 -0500,,,,,,,,,,15725.158870375,-0.74945068359375,-0.0898284912109375,-0.608551025390625,15725.148930375,0.03180443247350514,-0.8808662931954325,0.1026384913600235,0.2461362779140472,-2.215956211090088,0.06458180397748947,0.0454450249671936,0.003413565456867218,-0.01347285509109497,XArbitraryZVertical,0.05316586466057462,-0.4249783635396131,-0.007501559351545133,0.9036096353480608,-0.7672314047813416,-0.1024583727121353,-0.633133590221405,0,0,0,-1,-1,,,,,,,,,,,,,,,,,,1,0.71
2021-12-13 15:36:58.176 -0500,,,,,,,,,,15725.168810375,-0.7697601318359375,-0.091217041015625,-0.5840301513671875,15725.158870375,0.03376640423211447,-0.9024801648266412,0.1034157034088536,0.1597502678632736,-2.119266748428345,0.06098014488816261,0.03528112173080444,0.03049279749393463,-0.01188027858734131,XArbitraryZVertical,0.05385716455214478,-0.4346516858595615,-0.007363310368121502,0.8989566852743862,-0.7806729674339294,-0.1032314673066139,-0.6163546442985535,0,0,0,-1,-1,,,,,,,,,,,,,,,,,,1,0.71
2021-12-13 15:36:58.186 -0500,,,,,,,,,,15725.178750375,-0.7898712158203125,-0.110198974609375,-0.545074462890625,15725.168810375,0.0351456491258054,-0.9225742635549583,0.1037701690813563,0.08602464199066162,-1.83750331401825,0.02702684141695499,0.04341971874237061,0.01375551521778107,-0.008028805255889893,XArbitraryZVertical,0.05424481340738672,-0.4436173955434226,-0.007366048303389454,0.8945428304743323,-0.7928704023361206,-0.1035840287804604,-0.6005222201347351,0,0,0,-1,-1,,,,,,,,,,,,,,,,,,1,0.71
2021-12-13 15:36:58.196 -0500,,,,,,,,,,15725.188691375,-0.7962188720703125,-0.1323394775390625,-0.5560302734375,15725.178750375,0.03516377820375414,-0.9387633647773044,0.1038732415788549,-0.06605090945959091,-1.412616968154907,-0.0368669182062149,0.0327191948890686,0.01246947050094604,0.003571689128875732,XArbitraryZVertical,0.05423336839257371,-0.4508411832367155,-0.007820129498640648,0.8909208450174511,-0.8024793863296509,-0.103686548769474,-0.5876019597053528,0,0,0,-1,-1,,,,,,,,,,,,,,,,,,1,0.71
2021-12-13 15:36:58.206 -0500,,,,,,,,,,15725.198631375,-0.7979278564453125,-0.123291015625,-0.553466796875,15725.188691375,0.03402895051029191,-0.9510630645967895,0.1037253001119379,-0.1187530010938644,-1.117562651634216,-0.06519975513219833,0.01978707313537598,-0.006659582257270813,0.03262192010879517,XArbitraryZVertical,0.05385969324839075,-0.4563452237270637,-0.008623576270757704,0.8881293506340939,-0.8096582293510437,-0.1035394072532654,-0.5776963233947754,0,0,0,-1,-1,,,,,,,,,,,,,,,,,,1,0.71
2021-12-13 15:36:58.216 -0500,,,,,,,,,,15725.208571375,-0.814544677734375,-0.098358154296875,-0.55670166015625,15725.198631375,0.03268990069322547,-0.9618291581652215,0.1034198768690001,-0.1293486505746841,-1.127401351928711,-0.0406121239066124,0.01963776350021362,-0.02910388261079788,0.01293396949768066,XArbitraryZVertical,0.05336862006906864,-0.4611612316865726,-0.009435697151468433,0.8856596102484406,-0.8158566355705261,-0.1032356172800064,-0.5689642429351807,0,0,0,-1,-1,,,,,,,,,,,,,,,,,,1,0.71
2021-12-13 15:36:58.226 -0500,,,,,,,,,,15725.218511375,-0.831024169921875,-0.0838470458984375,-0.5789947509765625,15725.208571375,0.03168279281058731,-0.9742367585139513,0.1029636837478245,-0.08801719546318054,-1.411080837249756,0.00876980647444725,0.02496421337127686,-0.02050919085741043,0.005357503890991211,XArbitraryZVertical,0.05287287999598767,-0.4666822406077936,-0.01010434835509956,0.8827853874335352,-0.8228920102119446,-0.102781854569912,-0.5588243007659912,0,0,0,-1,-1,,,,,,,,,,,,,,,,,,1,0.71
2021-12-13 15:36:58.236 -0500,,,,,,,,,,15725.228452375,-0.8302001953125,-0.0793609619140625,-0.5610198974609375,15725.218511375,0.03134198164356431,-0.989799212256544,0.1023813271099201,-0.03055762872099876,-1.728057503700256,0.03571727126836777,0.0169939398765564,0.003844395279884338,-0.01071792840957642,XArbitraryZVertical,0.05245620228287338,-0.4735573033345616,-0.01052696465972021,0.879136457941914,-0.8315385580062866,-0.1022025644779205,-0.5459836721420288,0,0,0,-1,-1,,,,,,,,,,,,,,,,,,1,0.71
2021-12-13 15:36:58.245 -0500,,,,,,,,,,15725.238392375,-0.8321533203125,-0.0991363525390625,-0.50958251953125,15725.228452375,0.03137733096432514,-1.00831673738898,0.1020489777929804,-0.0001049144193530083,-1.990987420082092,0.02139865048229694,0.01051026582717896,0.01802487671375275,-0.04848372936248779,XArbitraryZVertical,0.05221977513837112,-0.4816820617841721,-0.01091645010904989,0.8747206442316598,-0.8415343761444092,-0.101871944963932,-0.5305109620094299,0,0,0,-1,-1,,,,,,,,,,,,,,,,,,1,0.71
2021-12-13 15:36:58.255 -0500,,,,,,,,,,15725.248332375,-0.849334716796875,-0.1028289794921875,-0.496795654296875,15725.238392375,0.03134411542014656,-1.028304071668813,0.1018495741231685,-0.04162492603063583,-2.007109403610229,0.00695126736536622,0.02178633213043213,0.02231259644031525,-0.04742330312728882,XArbitraryZVertical,0.05201328026521527,-0.4904042502162795,-0.01140317672476305,0.8698667500672208,-0.8519864678382874,-0.1016735807061195,-0.5135965943336487,0,0,0,-1,-1,,,,,,,,,,,,,,,,,,1,0.71
2021-12-13 15:36:58.265 -0500,,,,,,,,,,15725.258272375,-0.8516387939453125,-0.1005096435546875,-0.4990386962890625,15725.248332375,0.03059083221176211,-1.048179378545515,0.1017299314924369,-0.09890792518854141,-2.020624876022339,-0.05978795140981674,0.02988266944885254,0.002418182790279388,-0.01301366090774536,XArbitraryZVertical,0.05165773853681437,-0.4990461420671343,-0.01221533405419748,0.8649480920826562,-0.8620359897613525,-0.1015545576810837,-0.4965688586235046,0,0,0,-1,-1,,,,,,,,,,,,,,,,,,1,0.71
2021-12-13 15:36:58.275 -0500,,,,,,,,,,15725.268213375,-0.8776702880859375,-0.097686767578125,-0.5091552734375,15725.258272375,0.02953891210761965,-1.06859901862066,0.1017501235616813,-0.06977267563343048,-2.12346339225769,-0.04820533096790314,0.0226588249206543,-0.001254357397556305,-0.01793253421783447,XArbitraryZVertical,0.05127188735144735,-0.5078775796589491,-0.01319946638130483,0.8598007756046329,-0.8719935417175293,-0.101574644446373,-0.4788631200790405,0,0,0,-1,-1,,,,,,,,,,,,,,,,,,1,0.71
2021-12-13 15:36:58.285 -0500,,,,,,,,,,15725.278153375,-0.8731842041015625,-0.0913848876953125,-0.4734039306640625,15725.268213375,0.02919346617924976,-1.090810950081674,0.1019002260637465,0.01921818405389786,-2.375554084777832,0.0001353058032691479,0.03076165914535522,0.001214288175106049,-0.03966784477233887,XArbitraryZVertical,0.05109681213096832,-0.5174008833295279,-0.01395451462010317,0.8541023215865728,-0.8824005126953125,-0.1017239689826965,-0.459370881319046,0,0,0,-1,-1,,,,,,,,,,,,,,,,,,1,0.71
2021-12-13 15:36:58.295 -0500,,,,,,,,,,15725.288093375,-0.8746185302734375,-0.089019775390625,-0.427642822265625,15725.278153375,0.02958615116827904,-1.115982167826158,0.1015906487296178,0.0121496208012104,-2.677228450775146,0.09170064330101013,0.01604068279266357,0.003729209303855896,-0.07212486863136292,XArbitraryZVertical,0.05088977214153208,-0.5281051406560031,-0.01434813558997813,0.8475312409119865,-0.8937108516693115,-0.1014159917831421,-0.4370303750038147,0,0,0,-1,-1,,,,,,,,,,,,,,,,,,1,0.71
2021-12-13 15:36:58.305 -0500,,,,,,,,,,15725.298033375,-0.89849853515625,-0.0964813232421875,-0.412628173828125,15725.288093375,0.0301987913957101,-1.143538303477053,0.1002134443564366,-0.01428305171430111,-2.841356515884399,0.2174609750509262,0.03235507011413574,0.008660882711410522,-0.06110608577728271,XArbitraryZVertical,0.0502745943237398,-0.5397439430787516,-0.01441800573924559,0.8402029990805674,-0.9055392146110535,-0.1000457927584648,-0.4122978746891022,0,0,0,-1,-1,,,,,,,,,,,,,,,,,,1,0.71
2021-12-13 15:36:58.315 -0500,,,,,,,,,,15725.307974375,-0.9027557373046875,-0.0868988037109375,-0.3482208251953125,15725.298033375,0.03107938046134879,-1.172080103000905,0.09797421627015462,0.001786995213478804,-2.865662813186646,0.2420036047697067,0.04252219200134277,0.008797749876976013,-0.04126912355422974,XArbitraryZVertical,0.04937556239288587,-0.5517020750722758,-0.0141483643701326,0.8324582240738676,-0.9171406626701355,-0.0978175476193428,-0.38637375831604,0,0,0,-1,-1,,,,,,,,,,,,,,,,,,1,0.71
2021-12-13 15:36:58.325 -0500,,,,,,,,,,15725.317914375,-0.919769287109375,-0.09808349609375,-0.3296661376953125,15725.307974375,0.03179146448410278,-1.199761868862746,0.09577939467347238,-0.03634520992636681,-2.697507619857788,0.2358506172895432,0.02918285131454468,-0.000848330557346344,-0.05171030759811401,XArbitraryZVertical,0.04847136924768597,-0.5631976443713105,-0.01391731371701636,0.8247819762750596,-0.9276813268661499,-0.09563302248716354,-0.360917866230011,0,0,0,-1,-1,,,,,,,,,,,,,,,,,,1,0.71
2021-12-13 15:36:58.335 -0500,,,,,,,,,,15725.327854375,-0.9303741455078125,-0.0885009765625,-0.3373870849609375,15725.317914375,0.03214188512227261,-1.226351986010358,0.09323591775498007,-0.06622188538312912,-2.657877206802368,0.2656873464584351,0.03441935777664185,0.006202064454555511,-0.01201373338699341,XArbitraryZVertical,0.04734444130590003,-0.5741558647271873,-0.01368558632373132,0.8172614641214981,-0.9371750354766846,-0.0931008905172348,-0.3362070918083191,0,0,0,-1,-1,,,,,,,,,,,,,,,,,,1,0.71
2021-12-13 15:36:58.345 -0500,,,,,,,,,,15725.337794375,-0.9339447021484375,-0.07867431640625,-0.3132781982421875,15725.327854375,0.03263937275855937,-1.253385178071435,0.09050138519706667,-0.01329368725419044,-2.783050298690796,0.2870604395866394,0.02638930082321167,-0.007705628871917725,-0.0188353955745697,XArbitraryZVertical,0.0461951591037195,-0.5851927892484506,-0.0133211739496055,0.8094677603562633,-0.9461586475372314,-0.09037789702415466,-0.3108308017253876,0,0,0,-1,-1,,,,,,,,,,,,,,,,,,1,0.71
2021-12-13 15:36:58.355 -0500,,,,,,,,,,15725.347735375,-0.943878173828125,-0.0758514404296875,-0.28131103515625,15725.337794375,0.03364222242490873,-1.282085394183308,0.0878011282291805,0.04261778295040131,-2.988563776016235,0.2971985638141632,0.02454495429992676,-0.0008126348257064819,-0.05376711487770081,XArbitraryZVertical,0.04521821316411585,-0.5967791231281278,-0.01277374056064298,0.8010285334086409,-0.9549189805984497,-0.08768836408853531,-0.2836199700832367,0,0,0,-1,-1,,,,,,,,,,,,,,,,,,1,0.71
