loggingTime(txt),locationTimestamp_since1970(s),locationLatitude(WGS84),locationLongitude(WGS84),locationAltitude(m),locationSpeed(m/s),locationCourse(°),locationVerticalAccuracy(m),locationHorizontalAccuracy(m),locationFloor(Z),accelerometerTimestamp_sinceReboot(s),accelerometerAccelerationX(G),accelerometerAccelerationY(G),accelerometerAccelerationZ(G),motionTimestamp_sinceReboot(s),motionYaw(rad),motionRoll(rad),motionPitch(rad),motionRotationRateX(rad/s),motionRotationRateY(rad/s),motionRotationRateZ(rad/s),motionUserAccelerationX(G),motionUserAccelerationY(G),motionUserAccelerationZ(G),motionAttitudeReferenceFrame(txt),motionQuaternionX(R),motionQuaternionY(R),motionQuaternionZ(R),motionQuaternionW(R),motionGravityX(G),motionGravityY(G),motionGravityZ(G),motionMagneticFieldX(µT),motionMagneticFieldY(µT),motionMagneticFieldZ(µT),motionHeading(°),motionMagneticFieldCalibrationAccuracy(Z),activityTimestamp_sinceReboot(s),activity(txt),activityActivityConfidence(Z),activityActivityStartDate(txt),pedometerStartDate(txt),pedometerNumberofSteps(N),pedometerAverageActivePace(s/m),pedometerCurrentPace(s/m),pedometerCurrentCadence(steps/s),pedometerDistance(m),pedometerFloorAscended(N),pedometerFloorDescended(N),pedometerEndDate(txt),altimeterTimestamp_sinceReboot(s),altimeterReset(bool),altimeterRelativeAltitude(m),altimeterPressure(kPa),batteryState(N),batteryLevel(R)
2021-12-13 16:14:12.924 -0500,1639430050.780799,33.99216117880864,-81.03098797093902,70.83736,-1,-1,11.50619602203369,35,-9999,16431.93000479167,-0.01153564453125,-0.0314178466796875,-0.98126220703125,16431.92503579167,0.004286683864076112,0.00212884354573354,0.03269287697658621,0.390522301197052,0.1159304305911064,0.09922175109386444,-0.01958376541733742,0.03430446237325668,-0.009997069835662842,XArbitraryZVertical,0.01634338234705577,0.001099311302329521,0.002160451379227421,0.9998635151988234,0.002127704443410039,-0.03268705308437347,-0.9994633793830872,0,0,0,-1,-1,16422.045184625,unknown,2,2021-12-13 16:14:02.950 -0500,,,,,,,,,,661122850.5821794,0,0.5500002,101.8567,1,0.71
2021-12-13 16:14:12.928 -0500,,,,,,,,,,16431.939943625,0.0124664306640625,-0.02056884765625,-1.005279541015625,16431.934974625,0.005138900258325135,0.003372301036891566,0.03615313007219734,0.2598553597927094,0.1174183338880539,0.04347193241119385,-0.03605442494153976,-0.01141641288995743,0.02680671215057373,XArbitraryZVertical,0.01807116258707243,0.00173231277364935,0.002599501767054684,0.999831871955177,0.003370091086253524,-0.03614525496959686,-0.9993408918380737,0,0,0,-1,-1,,,,,,,,,,,,,,,,,,1,0.71
2021-12-13 16:14:12.930 -0500,,,,,,,,,,16431.949882625,0.0167999267578125,-0.0475006103515625,-1.006256103515625,16431.944912625,0.005236022917713972,0.003999868676810186,0.03760020455696503,0.08652540296316147,0.01518810354173183,-0.006974194198846817,-0.0004569990560412407,0.02442298829555511,-0.0006690025329589844,XArbitraryZVertical,0.01879365759830716,0.002048788525937574,0.00265513714529321,0.9998177749686685,0.003997030667960644,-0.03759134560823441,-0.9992852210998535,0,0,0,-1,-1,,,,,,,,,,,,,,,,,,1,0.71
2021-12-13 16:14:12.931 -0500,,,,,,,,,,16431.959820625,-0.000946044921875,-0.04522705078125,-0.980865478515625,16431.954851625,0.005351447969618588,0.004098539400545403,0.03847129386693304,0.08128776401281357,0.005820432677865028,0.0357985720038414,0.01615291088819504,0.001657586544752121,-0.007080674171447754,XArbitraryZVertical,0.01922886985438471,0.002100347828436416,0.002714636688077653,0.9998091841229559,0.004095495212823153,-0.03846180438995361,-0.999251663684845,0,0,0,-1,-1,,,,,,,,,,,,,,,,,,1,0.71
2021-12-13 16:14:12.932 -0500,,,,,,,,,,16431.969759625,-0.0105133056640625,-0.040618896484375,-0.973052978515625,16431.964790625,0.005592991435234897,0.003945169398257281,0.03886984939501784,0.006153867114335299,-0.0367821529507637,-0.004488399717956781,0.0039771250449121,-0.008625313639640808,0.001540958881378174,XArbitraryZVertical,0.01942807205710916,0.002026549254881552,0.002834292939532069,0.9998051917169232,0.003942179027944803,-0.03886006399989128,-0.9992368817329407,0,0,0,-1,-1,,,,,,,,,,,,,,,,,,1,0.71
2021-12-13 16:14:12.934 -0500,,,,,,,,,,16431.979698625,-0.0013580322265625,-0.040802001953125,-0.983367919921875,16431.974728625,0.005238968371726699,0.00359063684854713,0.03878684515066425,-0.008017878979444504,-0.0277391579002142,-0.05268535763025284,-0.0122091518715024,-0.003077760338783264,0.02690565586090088,XArbitraryZVertical,0.01938740692637369,0.001845771106409831,0.002653799389517302,0.9998068369027169,0.003587928600609303,-0.03877712041139603,-0.9992414712905884,0,0,0,-1,-1,,,,,,,,,,,,,,,,,,1,0.71
2021-12-13 16:14:12.935 -0500,,,,,,,,,,16431.989636625,0.0009002685546875,-0.05120849609375,-0.9840545654296875,16431.984667625,0.004948561050415546,0.003674579411131234,0.03880945264481712,0.02231872268021107,0.04336697608232498,0.005261299666017294,-0.01055352576076984,-0.0003696233034133911,0.02064836025238037,XArbitraryZVertical,0.01939887099555259,0.001884946711846314,0.002509457699214675,0.9998069141160583,0.003671804210171103,-0.0387997105717659,-0.9992402791976929,0,0,0,-1,-1,,,,,,,,,,,,,,,,,,1,0.71
2021-12-13 16:14:12.937 -0500,,,,,,,,,,16431.999575625,0.00054931640625,-0.0445098876953125,-0.994232177734375,16431.994606625,0.005213901841741185,0.004315744493750142,0.03898534986998629,0.02411156333982944,0.07284879684448242,0.03656449541449547,-0.003564778715372086,-0.00829627737402916,0.01534414291381836,XArbitraryZVertical,0.01948570505257294,0.002208266411145557,0.002648506577020524,0.99980416249509,0.004312451928853989,-0.03897547349333763,-0.9992308616638184,0,0,0,-1,-1,,,,,,,,,,,,,,,,,,1,0.71
2021-12-13 16:14:12.938 -0500,,,,,,,,,,16432.009514625,0.0067291259765625,-0.0352783203125,-1.007919311523438,16432.004544625,0.005559413001029652,0.004941684156516923,0.03908894846499008,0.01088044606149197,0.06526491791009903,0.02927835285663605,-0.004632720723748207,-0.0116412453353405,0.01225495338439941,XArbitraryZVertical,0.01953622706452039,0.002524682213548897,0.002827451420658194,0.9998020079337823,0.00493788905441761,-0.03907899558544159,-0.9992239475250244,0,0,0,-1,-1,,,,,,,,,,,,,,,,,,1,0.71
2021-12-13 16:14:12.940 -0500,,,,,,,,,,16432.019452625,-0.00213623046875,-0.035675048828125,-1.006668090820312,16432.014483625,0.005766422285116829,0.005462999701714768,0.03919427696348587,0.005520034581422806,0.04790040850639343,0.01218285597860813,-0.00161356944590807,-0.0001834556460380554,-0.002537667751312256,XArbitraryZVertical,0.01958785581360419,0.002787459417925519,0.002936168662291603,0.9997999326757626,0.005458776839077473,-0.03918424248695374,-0.9992170929908752,0,0,0,-1,-1,,,,,,,,,,,,,,,,,,1,0.71
2021-12-13 16:14:12.943 -0500,,,,,,,,,,16432.029391625,-0.0079345703125,-0.0270843505859375,-1.002883911132812,16432.024422625,0.005945531019360992,0.00578259649102385,0.03913189682614105,-0.00895850732922554,0.02452158369123936,0.02683689817786217,-0.001307319384068251,0.003980893641710281,-0.01019692420959473,XArbitraryZVertical,0.01955593917750896,0.002948889098613705,0.003028746890000801,0.9997997848967104,0.005778137594461441,-0.03912191092967987,-0.9992177486419678,0,0,0,-1,-1,,,,,,,,,,,,,,,,,,1,0.71
2021-12-13 16:14:12.946 -0500,,,,,,,,,,16432.039330625,0.0018463134765625,-0.02215576171875,-1.012466430664062,16432.034360625,0.006248434687337079,0.006147896936629644,0.03908272374467059,0.00882421899586916,0.05272026360034943,0.03957399725914001,-0.01183469966053963,0.006174802780151367,-0.004383563995361328,XArbitraryZVertical,0.01953033005196523,0.003134389144989696,0.003183666166175245,0.999799213795149,0.006143163423985243,-0.03907277435064316,-0.9992175102233887,0,0,0,-1,-1,,,,,,,,,,,,,,,,,,1,0.71
2021-12-13 16:14:12.959 -0500,,,,,,,,,,16432.049268625,0.0009918212890625,-0.029998779296875,-1.00970458984375,16432.044299625,0.006756923168054812,0.006750887549997143,0.03932298395272812,0.02876037731766701,0.06358809024095535,0.06287692487239838,-0.01077394559979439,0.01517342403531075,-0.008593082427978516,XArbitraryZVertical,0.01964859991812395,0.003441186590411852,0.003444144485415523,0.9997950704675489,0.006745617371052504,-0.03931285068392754,-0.999204158782959,0,0,0,-1,-1,,,,,,,,,,,,,,,,,,1,0.71
2021-12-13 16:14:12.965 -0500,,,,,,,,,,16432.059207625,0.00531005859375,-0.0264434814453125,-1.006942749023438,16432.054238625,0.007239631909418036,0.007188483950145672,0.03947444457100403,0.001283477991819382,0.03790759295225143,0.02620613016188145,-0.003444425761699677,0.01416509971022606,-0.0140189528465271,XArbitraryZVertical,0.01972267556928315,0.003664950376259859,0.003690014647508979,0.9997919924130847,0.007182822097092867,-0.03946419432759285,-0.9991951584815979,0,0,0,-1,-1,,,,,,,,,,,,,,,,,,1,0.71
2021-12-13 16:14:12.975 -0500,,,,,,,,,,16432.069145625,0.0169830322265625,-0.04083251953125,-1.013015747070312,16432.064176625,0.007251306183736629,0.007483031118401924,0.03947767730119224,0.0024944175966084,0.02970399521291256,-0.01365286950021982,-0.00755343260243535,0.01075035706162453,-0.006300270557403564,XArbitraryZVertical,0.01972372544884784,0.003812314089382251,0.003698761039490676,0.9997914005565246,0.007477131206542253,-0.03946742415428162,-0.9991928935050964,0,0,0,-1,-1,,,,,,,,,,,,,,,,,,1,0.71
2021-12-13 16:14:12.985 -0500,,,,,,,,,,16432.079084625,0.0095062255859375,-0.0479583740234375,-1.003646850585938,16432.074115625,0.007301543931080651,0.007784880653694809,0.03953828683617382,0.003192698350176215,0.04011712223291397,0.03186947479844093,0.00650350097566843,0.008949350565671921,-0.01173710823059082,XArbitraryZVertical,0.0197533666118033,0.003963811179008027,0.003726967309055706,0.9997900835058477,0.007778718136250973,-0.03952798619866371,-0.9991881847381592,0,0,0,-1,-1,,,,,,,,,,,,,,,,,,1,0.71
2021-12-13 16:14:12.995 -0500,,,,,,,,,,16432.089023625,-0.000213623046875,-0.0338134765625,-1.002960205078125,16432.084054625,0.007820703736480554,0.008324276456132462,0.03967230668956136,0.01802836917340755,0.07565780729055405,0.06279356777667999,0.006391833536326885,-0.00782347097992897,-0.01055651903152466,XArbitraryZVertical,0.01981825596720081,0.004238835744381161,0.003992093078256976,0.9997866933039111,0.008317630738019943,-0.03966189920902252,-0.9991785287857056,0,0,0,-1,-1,,,,,,,,,,,,,,,,,,1,0.71
2021-12-13 16:14:13.004 -0500,,,,,,,,,,16432.098962625,0.0007781982421875,-0.0306396484375,-1.005340576171875,16432.093992625,0.008258902336681036,0.009073700610024807,0.03984687283529908,0.01488237828016281,0.07530476152896881,0.02141430415213108,-0.005389013327658176,-0.001804929226636887,-0.002833783626556396,XArbitraryZVertical,0.01990301192163483,0.004618161831999593,0.004218959828022416,0.9997823826186695,0.009066374041140079,-0.0398363284766674,-0.9991650581359863,0,0,0,-1,-1,,,,,,,,,,,,,,,,,,1,0.71
2021-12-13 16:14:13.015 -0500,,,,,,,,,,16432.108900625,0.010009765625,-0.04718017578125,-1.00048828125,16432.103931625,0.00822682851392399,0.009714801301020527,0.03990238607975638,-0.003415936138480902,0.05503997579216957,-0.02083461545407772,-0.01008839439600706,0.01024395227432251,-0.0056648850440979,XArbitraryZVertical,0.01992949003564409,0.004938434910686362,0.004209439044810259,0.9997802754614442,0.009706915356218815,-0.0398917980492115,-0.9991568326950073,0,0,0,-1,-1,,,,,,,,,,,,,,,,,,1,0.71
2021-12-13 16:14:13.025 -0500,,,,,,,,,,16432.118839625,0.0098876953125,-0.0569610595703125,-1.001190185546875,16432.113869625,0.008202908481623902,0.01010709405671859,0.03972097195107872,-0.03463191166520119,0.0254004243761301,0.02386428043246269,-0.005872273817658424,0.001395687460899353,-0.003601610660552979,XArbitraryZVertical,0.0198380376760308,0.005133936806064045,0.004200939680940156,0.9997811705822707,0.01009895000606775,-0.03971052914857864,-0.9991601705551147,0,0,0,-1,-1,,,,,,,,,,,,,,,,,,1,0.71
2021-12-13 16:14:13.034 -0500,,,,,,,,,,16432.128777625,-0.00042724609375,-0.03448486328125,-1.002166748046875,16432.123808625,0.008563522291614263,0.01002703978249474,0.0391206747782385,-0.06490033864974976,-0.02927560359239578,0.02692478522658348,0.002477740868926048,-0.01553105190396309,-0.002341210842132568,XArbitraryZVertical,0.01953720343076891,0.005096240150374299,0.00437893395681873,0.9997865079486513,0.01001919992268085,-0.0391106978058815,-0.9991846680641174,0,0,0,-1,-1,,,,,,,,,,,,,,,,,,1,0.71
2021-12-13 16:14:13.044 -0500,,,,,,,,,,16432.138716625,0.007476806640625,-0.0189056396484375,-1.007080078125,16432.133747625,0.008520595002355819,0.009643772914058713,0.03855553198271728,-0.04834745824337006,-0.03787165135145187,-0.02664882875978947,-0.005241933278739452,-0.008847840130329132,-0.0026206374168396,XArbitraryZVertical,0.01925563520573355,0.004903051053131183,0.004352391958404801,0.9997930465978031,0.009636456146836281,-0.03854598104953766,-0.9992103576660156,0,0,0,-1,-1,,,,,,,,,,,,,,,,,,1,0.71
2021-12-13 16:14:13.054 -0500,,,,,,,,,,16432.148655625,0.020782470703125,-0.0327606201171875,-1.01568603515625,16432.143685625,0.008329436382522384,0.009439939136782509,0.03817117666580268,-0.01947026886045933,-0.001400461420416832,-0.01007704250514507,-0.009707588702440262,0.01477016136050224,-0.005304813385009766,XArbitraryZVertical,0.01906439851883662,0.004798531804362925,0.004253978220116757,0.9997976627323196,0.009432923048734665,-0.03816190734505653,-0.9992270469665527,0,0,0,-1,-1,,,,,,,,,,,,,,,,,,1,0.71
2021-12-13 16:14:13.064 -0500,,,,,,,,,,16432.158593625,0.0293731689453125,-0.04107666015625,-1.0147705078125,16432.153624625,0.00839697325015433,0.009533874957201344,0.03812665671486749,0.007720605004578829,0.01779293827712536,0.02100337855517864,0.006266037002205849,0.01521395519375801,-0.01184999942779541,XArbitraryZVertical,0.01904177931802005,0.004846042490277519,0.004288530854246315,0.9997977305640863,0.009526802226901054,-0.0381174199283123,-0.9992278814315796,0,0,0,-1,-1,,,,,,,,,,,,,,,,,,1,0.71
2021-12-13 16:14:13.074 -0500,,,,,,,,,,16432.168532625,0.0269775390625,-0.0419921875,-1.007827758789062,16432.163563625,0.008593159710485469,0.009734956125965278,0.03828835830137666,0.02061057090759277,0.02713850326836109,0.0163487046957016,0.01648692414164543,-0.001332834362983704,-0.01745808124542236,XArbitraryZVertical,0.01912169643231477,0.004948770136260014,0.004388905292775903,0.9997953017310488,0.009727668017148972,-0.03827900439500809,-0.9992197155952454,0,0,0,-1,-1,,,,,,,,,,,,,,,,,,1,0.71
2021-12-13 16:14:13.084 -0500,,,,,,,,,,16432.178471625,0.029022216796875,-0.05303955078125,-1.0008544921875,16432.173501625,0.008740082674298016,0.01005517261606387,0.03856073903883014,0.02785117365419865,0.03799301385879517,0.01006657443940639,0.01813544705510139,-0.0009691007435321808,-0.01216167211532593,XArbitraryZVertical,0.01925678038987004,0.005110832061387076,0.004466086285185005,0.9997915525156514,0.01004752889275551,-0.03855118528008461,-0.9992061257362366,0,0,0,-1,-1,,,,,,,,,,,,,,,,,,1,0.71
2021-12-13 16:14:13.094 -0500,,,,,,,,,,16432.188409625,0.0237274169921875,-0.0538330078125,-0.9948577880859375,16432.183440625,0.008792906290157885,0.01033022317390855,0.03872103448939417,0.006355468649417162,0.02336001209914684,-0.003281455021351576,0.01879146508872509,-0.006881926208734512,-0.005487322807312012,XArbitraryZVertical,0.01933615801287507,0.005249181412226833,0.004495547819684267,0.9997891886341259,0.01032229606062174,-0.03871135786175728,-0.9991971254348755,0,0,0,-1,-1,,,,,,,,,,,,,,,,,,1,0.71
2021-12-13 16:14:13.104 -0500,,,,,,,,,,16432.198348625,0.02471923828125,-0.0537872314453125,-0.9987640380859375,16432.193379625,0.008726690010014944,0.01057809968307799,0.03873214721950557,-0.001408445183187723,0.02663463540375233,-0.004886541981250048,0.01540048234164715,-0.0181928426027298,0.001696527004241943,XArbitraryZVertical,0.01934133540127666,0.005372477459284749,0.004464872442817826,0.9997884865908915,0.01056996919214725,-0.03872246295213699,-0.9991940855979919,0,0,0,-1,-1,,,,,,,,,,,,,,,,,,1,0.71
2021-12-13 16:14:13.114 -0500,,,,,,,,,,16432.208287625,0.013702392578125,-0.05218505859375,-1.00054931640625,16432.203317625,0.008755134018636167,0.01076484161670566,0.03871521536693874,-0.009069560095667839,0.009123550727963448,0.007615400943905115,0.01385585218667984,-0.01294548064470291,0.005418360233306885,XArbitraryZVertical,0.01933237607276835,0.005466067418470846,0.00448085237596331,0.9997881058420289,0.01075656712055206,-0.03870554640889168,-0.9991927742958069,0,0,0,-1,-1,,,,,,,,,,,,,,,,,,1,0.71
2021-12-13 16:14:13.124 -0500,,,,,,,,,,16432.218225625,0.0044403076171875,-0.0415802001953125,-0.997589111328125,16432.213256625,0.008722596048190999,0.01074965663024779,0.03864118282441591,-0.01318627409636974,-0.004145649261772633,-0.01944790780544281,0.009445944800972939,-0.01683415472507477,-0.00239109992980957,XArbitraryZVertical,0.01929549015148211,0.005458004378775048,0.004464244197034728,0.9997889503762796,0.01074142567813396,-0.03863156586885452,-0.9991958141326904,0,0,0,-1,-1,,,,,,,,,,,,,,661122853.1202663,0,0.5500002,101.8565,1,0.71
2021-12-13 16:14:13.134 -0500,,,,,,,,,,16432.228164625,0.0052337646484375,-0.04852294921875,-0.9954376220703125,16432.223195625,0.008458558404738881,0.0105099354140398,0.03844290655687995,-0.02233023755252361,-0.03389295935630798,-0.02584242448210716,-0.003147249110043049,-0.008639946579933167,0.0007929205894470215,XArbitraryZVertical,0.01919761218621004,0.005335212390291505,0.00432942753254844,0.999792088720674,0.01050197705626488,-0.03843344002962112,-0.9992059469223022,0,0,0,-1,-1,,,,,,,,,,,,,,,,,,1,0.71
2021-12-13 16:14:13.144 -0500,,,,,,,,,,16432.238103625,0.0196533203125,-0.0495147705078125,-1.005661010742188,16432.233133625,0.008395298412816563,0.01035443352196239,0.03825413247353712,-0.004464421886950731,0.001682812348008156,0.01321602798998356,-0.00761535856872797,-0.006036221981048584,0.004082441329956055,XArbitraryZVertical,0.01910374783236765,0.005256483727276213,0.004295830585086462,0.9997944256134903,0.0103466734290123,-0.03824480250477791,-0.9992148280143738,0,0,0,-1,-1,,,,,,,,,,,,,,,,,,1,0.71
2021-12-13 16:14:13.154 -0500,,,,,,,,,,16432.248041625,0.015838623046875,-0.045379638671875,-1.001556396484375,16432.243072625,0.008590716328123648,0.01048365687735116,0.038255974444906,0.002792425220832229,0.01422710157930851,0.02223855257034302,0.003074001520872116,-0.01143599301576614,-0.0005424022674560547,XArbitraryZVertical,0.01910387113090464,0.005322952565671788,0.004394758503130713,0.9997936357832414,0.01047579478472471,-0.03824664279818535,-0.9992133975028992,0,0,0,-1,-1,,,,,,,,,,,,,,,,,,1,0.71
2021-12-13 16:14:13.164 -0500,,,,,,,,,,16432.257980625,0.0142364501953125,-0.03973388671875,-0.9985504150390625,16432.253011625,0.008861286998363756,0.0106566972866824,0.03829005300422073,0.007108077872544527,0.01671925187110901,0.03644265234470367,0.007814441807568073,-0.009143643081188202,-0.00600820779800415,XArbitraryZVertical,0.01911979513530197,0.005412113178059216,0.004531758146635839,0.9997922124532669,0.01064868457615376,-0.03828069567680359,-0.9992102980613708,0,0,0,-1,-1,,,,,,,,,,,,,,,,,,1,0.71
2021-12-13 16:14:13.178 -0500,,,,,,,,,,16432.267919625,0.0205230712890625,-0.03973388671875,-1.001052856445312,16432.262949625,0.009386667757920308,0.01101696949957786,0.03842815181673332,0.01770772598683834,0.04877092689275742,0.06768952310085297,0.002968428656458855,-0.004901029169559479,-0.0006310343742370605,XArbitraryZVertical,0.0191865437160081,0.005597550671542434,0.004798211709103779,0.9997886712054768,0.01100861374288797,-0.03841869533061981,-0.9992010593414307,0,0,0,-1,-1,,,,,,,,,,,,,,,,,,1,0.71
2021-12-13 16:14:13.184 -0500,,,,,,,,,,16432.277857625,0.0140380859375,-0.0380096435546875,-0.996978759765625,16432.272888625,0.009994572901485846,0.01146752169436592,0.03867261639875474,0.01720491982996464,0.0304578673094511,0.04653456807136536,0.005905797705054283,-0.0003079921007156372,-9.620189666748047e-05,XArbitraryZVertical,0.01930589663931931,0.005829207115066288,0.005107110260971017,0.9997835745444915,0.01145869679749012,-0.03866297751665115,-0.999186635017395,0,0,0,-1,-1,,,,,,,,,,,,,,,,,,1,0.71
2021-12-13 16:14:13.193 -0500,,,,,,,,,,16432.287796625,0.013275146484375,-0.0336761474609375,-0.9959869384765625,16432.282827625,0.01027430928841488,0.01161563220725149,0.03871429467568145,-0.01129543036222458,0.00462573766708374,0.01106232963502407,0.007909315638244152,-0.002753529697656631,-0.001625418663024902,XArbitraryZVertical,0.019325527280806,0.005906051235800353,0.005248496739511704,0.999782004615838,0.01160666719079018,-0.03870462626218796,-0.9991832971572876,0,0,0,-1,-1,,,,,,,,,,,,,,,,,,1,0.71
2021-12-13 16:14:13.203 -0500,,,,,,,,,,16432.297735625,0.0103302001953125,-0.0390625,-0.999298095703125,16432.292765625,0.01040072343678248,0.01168232275107632,0.03863877167799682,-0.007097489666193724,0.005213597789406776,0.01740877702832222,-0.0002292534336447716,0.004647813737392426,0.005945086479187012,XArbitraryZVertical,0.01928722350829548,0.005940418658739821,0.005312117700173483,0.9997822042759024,0.01167333777993917,-0.03862915933132172,-0.9991854429244995,0,0,0,-1,-1,,,,,,,,,,,,,,,,,,1,0.71
2021-12-13 16:14:13.213 -0500,,,,,,,,,,16432.307673625,0.00994873046875,-0.0302581787109375,-0.9987945556640625,16432.302704625,0.01063349726740686,0.01178532699856783,0.03861025551742005,-0.005973369348794222,0.02383521944284439,0.02639614790678024,0.0003697173669934273,0.00159807875752449,0.0005738735198974609,XArbitraryZVertical,0.01927199716490559,0.005994080021807338,0.005429389917825916,0.9997815601544987,0.01177627127617598,-0.03860066458582878,-0.99918532371521,0,0,0,-1,-1,,,,,,,,,,,,,,,,,,1,0.71
2021-12-13 16:14:13.223 -0500,,,,,,,,,,16432.317612625,0.0124969482421875,-0.03289794921875,-1.007492065429688,16432.312643625,0.01085078948205648,0.01214269265536881,0.03856673106557899,-5.76898455619812e-05,0.04673288017511368,0.01739918999373913,-0.003115429542958736,0.003278832882642746,0.001761496067047119,XArbitraryZVertical,0.01924859792317948,0.006174701725481561,0.005541325639324114,0.9997803273311544,0.01213336549699306,-0.03855717182159424,-0.9991827011108398,0,0,0,-1,-1,,,,,,,,,,,,,,,,,,1,0.71
2021-12-13 16:14:13.233 -0500,,,,,,,,,,16432.327551625,0.0121002197265625,-0.035736083984375,-1.010513305664062,16432.322581625,0.01101767417813457,0.01254693931587254,0.0386068815485029,0.001856590621173382,0.03329563140869141,0.01564469933509827,0.0004174439236521721,0.009391944855451584,-0.002731144428253174,XArbitraryZVertical,0.01926701579112462,0.006378494563336171,0.005628763675564974,0.9997782237528918,0.01253726053982973,-0.03859729319810867,-0.9991762042045593,0,0,0,-1,-1,,,,,,,,,,,,,,,,,,1,0.71
2021-12-13 16:14:13.243 -0500,,,,,,,,,,16432.337489625,0.0123291015625,-0.0313262939453125,-1.013381958007812,16432.332520625,0.01118493299190926,0.0129316688441955,0.03859879278165343,-0.002499275375157595,0.04763319343328476,0.01449594460427761,-0.001508110202848911,0.00279206782579422,-0.01047194004058838,XArbitraryZVertical,0.01926134050440138,0.006572405919630692,0.005716055170007429,0.9997765344299104,0.01292167697101831,-0.03858920931816101,-0.9991716146469116,0,0,0,-1,-1,,,,,,,,,,,,,,,,,,1,0.71
2021-12-13 16:14:13.253 -0500,,,,,,,,,,16432.347428625,0.01129150390625,-0.0295562744140625,-1.018661499023438,16432.342459625,0.01129139057456525,0.01360856479230438,0.03867211349104386,0.01888084784150124,0.07508931308984756,0.009709977544844151,-0.00163508765399456,0.005291476845741272,-0.01367282867431641,XArbitraryZVertical,0.01929568861236087,0.006912004978836359,0.00577603583339447,0.9997732596426573,0.01359796989709139,-0.03866247460246086,-0.9991598129272461,0,0,0,-1,-1,,,,,,,,,,,,,,,,,,1,0.71
2021-12-13 16:14:13.263 -0500,,,,,,,,,,16432.357366625,-0.00860595703125,-0.028289794921875,-1.00445556640625,16432.352397625,0.01148849767971521,0.01403429054623788,0.0388807721994845,0.01336411014199257,0.01355931162834167,0.02490890398621559,-0.0005649803206324577,0.009299423545598984,-0.01675379276275635,XArbitraryZVertical,0.01939806193900145,0.007127305899314107,0.005879394386509997,0.9997691643914917,0.01402322389185429,-0.03887097537517548,-0.9991458058357239,0,0,0,-1,-1,,,,,,,,,,,,,,,,,,1,0.71
2021-12-13 16:14:13.273 -0500,,,,,,,,,,16432.367305625,0.0103912353515625,-0.02484130859375,-1.0068359375,16432.362336625,0.01167621959360613,0.01416063785974238,0.03899772904965102,0.01336970180273056,0.02083906158804893,0.01515001617372036,-0.01500389911234379,0.008973788470029831,-0.01436448097229004,XArbitraryZVertical,0.01945547973073279,0.007192618616929516,0.005974866130173936,0.9997670502068385,0.01414939854294062,-0.03898784518241882,-0.9991394877433777,0,0,0,-1,-1,,,,,,,,,,,,,,,,,,1,0.71
2021-12-13 16:14:13.283 -0500,,,,,,,,,,16432.377244625,0.02288818359375,-0.04058837890625,-1.01019287109375,16432.372274625,0.01192281312114284,0.01450304453941646,0.03922330799885351,0.02950552850961685,0.04510129243135452,0.03334673121571541,-0.01499492954462767,0.01609616354107857,-0.003285109996795654,XArbitraryZVertical,0.01956631354693007,0.007366837613456684,0.00610226996229871,0.9997627431164386,0.01449138205498457,-0.03921325132250786,-0.9991257786750793,0,0,0,-1,-1,,,,,,,,,,,,,,,,,,1,0.71
2021-12-13 16:14:13.293 -0500,,,,,,,,,,16432.387182625,0.0256195068359375,-0.0433807373046875,-1.004959106445312,16432.382213625,0.01216366404694454,0.01487971376653337,0.03943972559301606,0.01249485369771719,0.02743441238999367,0.005635473877191544,0.004358470439910889,0.006287392228841782,-0.01156938076019287,XArbitraryZVertical,0.01967243733288282,0.007558125805650507,0.006227143629066428,0.9997584426553204,0.01486759353429079,-0.03942950069904327,-0.9991117119789124,0,0,0,-1,-1,,,,,,,,,,,,,,,,,,1,0.71
2021-12-13 16:14:13.303 -0500,,,,,,,,,,16432.397121625,0.0277862548828125,-0.0445709228515625,-1.007476806640625,16432.392152625,0.01202649282478528,0.01498987395167953,0.03940483261930485,-0.01515541598200798,-0.004275511018931866,-0.0322573147714138,0.01048923470079899,-0.00497794896364212,-0.008685767650604248,XArbitraryZVertical,0.01965517370309714,0.007611740876549047,0.006159529341205415,0.9997588151599537,0.01497767679393291,-0.03939463570713997,-0.9991114735603333,0,0,0,-1,-1,,,,,,,,,,,,,,,,,,1,0.71
2021-12-13 16:14:13.313 -0500,,,,,,,,,,16432.407060625,0.0189056396484375,-0.033599853515625,-1.012451171875,16432.402090625,0.0117210053898975,0.01482201419367566,0.03916425215963325,-0.02353638410568237,-0.02545962482690811,-0.02490618824958801,0.01218268182128668,-0.005370926111936569,-0.004492878913879395,XArbitraryZVertical,0.0195365778381253,0.007524141301828515,0.006004294976168043,0.9997627778745025,0.0148101057857275,-0.03915424272418022,-0.9991233944892883,0,0,0,-1,-1,,,,,,,,,,,,,,,,,,1,0.71
2021-12-13 16:14:13.323 -0500,,,,,,,,,,16432.416998625,0.0052642822265625,-0.028411865234375,-1.00653076171875,16432.412029625,0.01141148332680293,0.01462433638631354,0.03895538844152018,-0.01029381528496742,-0.01446922589093447,-0.03578387200832367,0.009221499785780907,-0.002405807375907898,-0.01237064599990845,XArbitraryZVertical,0.01943391182477251,0.007421721008294213,0.005846887400238667,0.9997665162227127,0.01461272034794092,-0.03894553706049919,-0.9991344809532166,0,0,0,-1,-1,,,,,,,,,,,,,,,,,,1,0.71
2021-12-13 16:14:13.333 -0500,,,,,,,,,,16432.426937625,0.0030975341796875,-0.0423126220703125,-0.99627685546875,16432.421968625,0.01110270901713782,0.01443827152794262,0.03891281207276286,0.001177484169602394,-0.02993926219642162,-0.0193103551864624,-0.001899383030831814,0.01154396310448647,-0.01021474599838257,XArbitraryZVertical,0.01941430400190613,0.007325594737148014,0.005690576877700887,0.9997684890137762,0.01442684046924114,-0.03890299424529076,-0.9991388320922852,0,0,0,-1,-1,,,,,,,,,,,,,,,,,,1,0.71
2021-12-13 16:14:13.343 -0500,,,,,,,,,,16432.436876625,0.0093536376953125,-0.04351806640625,-0.9971160888671875,16432.431906625,0.01096001074901354,0.01416398621965525,0.03887849795272093,0.0009074397385120392,-0.02425118535757065,-0.007889788597822189,-0.0109484726563096,0.003727693110704422,-0.003663480281829834,XArbitraryZVertical,0.01939844405838994,0.007187006903210399,0.005616461976637788,0.9997702158200736,0.01415280997753143,-0.03886870294809341,-0.9991440773010254,0,0,0,-1,-1,,,,,,,,,,,,,,,,,,1,0.71
2021-12-13 16:14:13.353 -0500,,,,,,,,,,16432.446814625,0.0167694091796875,-0.05108642578125,-0.99615478515625,16432.441845625,0.01099483756708826,0.01387140329392884,0.03886931548623806,-0.001725893933326006,-0.02597398310899734,0.01063063181936741,-0.008199478499591351,-0.005436759442090988,0.004534900188446045,XArbitraryZVertical,0.01939455293234717,0.007041062256554612,0.005631002241337314,0.9997712357449147,0.01386048179119825,-0.0388595275580883,-0.9991485476493835,0,0,0,-1,-1,,,,,,,,,,,,,,,,,,1,0.71
2021-12-13 16:14:13.363 -0500,,,,,,,,,,16432.456753625,0.01971435546875,-0.0542755126953125,-1.000701904296875,16432.451784625,0.01104736519278203,0.01354779399263439,0.03872407068821115,-0.01872591488063335,-0.03186216577887535,0.003472321666777134,0.000653441995382309,-0.006772078573703766,0.004667043685913086,XArbitraryZVertical,0.01932267609916777,0.00687941203538902,0.005653637511981283,0.9997736771739943,0.01353722345083952,-0.03871439397335052,-0.9991586208343506,0,0,0,-1,-1,,,,,,,,,,,,,,,,,,1,0.71
2021-12-13 16:14:13.373 -0500,,,,,,,,,,16432.466692625,0.016510009765625,-0.0495147705078125,-1.003143310546875,16432.461722625,0.01108481457506929,0.01329869587805587,0.03853980040615931,-0.01185282878577709,-0.01273374445736408,-0.005258585792034864,0.004396500065922737,-0.01482975110411644,-0.0005868077278137207,XArbitraryZVertical,0.01923114002403364,0.006754754588780986,0.005669348967123459,0.9997761524530462,0.01328842900693417,-0.03853026032447815,-0.9991690516471863,0,0,0,-1,-1,,,,,,,,,,,,,,,,,,1,0.71
2021-12-13 16:14:13.383 -0500,,,,,,,,,,16432.476630625,0.0140380859375,-0.0498199462890625,-1.000946044921875,16432.471661625,0.01102023534288044,0.01323273607658966,0.03844429661811313,-0.01241954974830151,-0.005015336908400059,-0.009663321077823639,0.005637282505631447,-0.01436060667037964,-0.003466129302978516,XArbitraryZVertical,0.01918380259789541,0.00672090406774012,0.005636121474829434,0.9997774835816908,0.01322257239371538,-0.03843482583761215,-0.999173641204834,0,0,0,-1,-1,,,,,,,,,,,,,,,,,,1,0.71
2021-12-13 16:14:13.392 -0500,,,,,,,,,,16432.486569625,0.0041961669921875,-0.055908203125,-0.996856689453125,16432.481600625,0.01093384270319376,0.01318814531352293,0.03834672412873775,-0.01360012963414192,-0.02065341919660568,-0.006939972750842571,0.001653466373682022,-0.008797090500593185,-0.004209458827972412,XArbitraryZVertical,0.01913544180282696,0.006697524380561264,0.005592190440337583,0.999778829019939,0.01317806821316481,-0.03833732753992081,-0.9991779327392578,0,0,0,-1,-1,,,,,,,,,,,,,,,,,,1,0.71
2021-12-13 16:14:13.402 -0500,,,,,,,,,,16432.496508625,0.0073089599609375,-0.0407562255859375,-1.000595092773438,16432.491538625,0.01077014865251346,0.01285369311770563,0.03804919882812245,-0.04391702264547348,-0.04478335753083229,-0.02580380812287331,-0.002956349402666092,-0.01660173013806343,-0.0006232261657714844,XArbitraryZVertical,0.01898818085210669,0.006527986268444489,0.005506220840434121,0.9997832288261002,0.01284403633326292,-0.03804001957178116,-0.9991936683654785,0,0,0,-1,-1,,,,,,,,,,,,,,,,,,1,0.71
2021-12-13 16:14:13.412 -0500,,,,,,,,,,16432.506446625,0.0086517333984375,-0.0375518798828125,-1.005355834960938,16432.501477625,0.01050663483259746,0.01241302648835988,0.03763096656898385,-0.03188779205083847,-0.04657859355211258,-0.02214382588863373,-0.009245358407497406,-0.01227417960762978,0.003243386745452881,XArbitraryZVertical,0.0187811519213498,0.006304124507940803,0.005369031352198596,0.9997893579815412,0.01240392029285431,-0.03762208670377731,-0.9992150664329529,0,0,0,-1,-1,,,,,,,,,,,,,,,,,,1,0.71
2021-12-13 16:14:13.422 -0500,,,,,,,,,,16432.516385625,0.0066070556640625,-0.030364990234375,-1.004791259765625,16432.511416625,0.01042605772034983,0.01191047465496031,0.03733105587591872,-0.0279961135238409,-0.04637778922915459,0.00347977876663208,-0.001617479138076305,0.001708347350358963,-0.00671851634979248,XArbitraryZVertical,0.01863282096757808,0.006051380147100025,0.005323153925055338,0.999793882014069,0.01190189458429813,-0.03732238709926605,-0.9992324113845825,0,0,0,-1,-1,,,,,,,,,,,,,,,,,,1,0.71
2021-12-13 16:14:13.432 -0500,,,,,,,,,,16432.526324625,0.014007568359375,-0.03338623046875,-1.008438110351562,16432.521354625,0.01063982904477867,0.01147980106779163,0.03710191913989488,-0.03080415166914463,-0.0448954738676548,0.05311444401741028,-0.005886940285563469,0.001311521977186203,-0.004141509532928467,XArbitraryZVertical,0.01851879753602797,0.005837482028250882,0.005425358984810547,0.9997967378794151,0.0114716487005353,-0.03709340840578079,-0.9992459416389465,0,0,0,-1,-1,,,,,,,,,,,,,,,,,,1,0.71
2021-12-13 16:14:13.442 -0500,,,,,,,,,,16432.536262625,0.0189208984375,-0.021270751953125,-1.009048461914062,16432.531293625,0.01129211361064838,0.01112944122251595,0.03681434570959663,-0.0005141557194292545,-0.01038327254354954,0.05101467296481133,-0.001249241642653942,0.009187597781419754,-0.009635329246520996,XArbitraryZVertical,0.01837414096574515,0.005667580101318514,0.005747405427272697,0.9997986533746698,0.01112167071551085,-0.03680603206157684,-0.9992605447769165,0,0,0,-1,-1,,,,,,,,,,,,,,,,,,1,0.71
2021-12-13 16:14:13.452 -0500,,,,,,,,,,16432.546201625,0.0160980224609375,-0.0291290283203125,-0.996307373046875,16432.541232625,0.01151862344741463,0.01116002600620098,0.0369901730477562,0.01685311645269394,0.01084798015654087,0.0003799921832978725,0.009294607676565647,0.009531155228614807,-0.005751132965087891,XArbitraryZVertical,0.01846130550856139,0.005685447578978642,0.00586139966988717,0.9997962713061661,0.01115216035395861,-0.0369817391037941,-0.9992536902427673,0,0,0,-1,-1,,,,,,,,,,,,,,,,,,1,0.71
2021-12-13 16:14:13.462 -0500,,,,,,,,,,16432.556140625,0.01715087890625,-0.0394439697265625,-0.998016357421875,16432.551170625,0.01151422909818771,0.01125386610004366,0.03706000255713809,-0.005620766896754503,0.003848595544695854,0.001754449214786291,0.006286438554525375,0.01608592644333839,-0.006044685840606689,XArbitraryZVertical,0.01849595101524141,0.005732514920529563,0.005860261941704799,0.9997953532130576,0.01124590169638395,-0.03705152124166489,-0.999250054359436,0,0,0,-1,-1,,,,,,,,,,,,,,,,,,1,0.71
2021-12-13 16:14:13.472 -0500,,,,,,,,,,16432.566078625,0.0121917724609375,-0.040985107421875,-0.994537353515625,16432.561109625,0.01149701713714368,0.01124921729933981,0.03703439686005989,-0.001730154734104872,-0.008383569307625294,-0.002810208592563868,0.005070369690656662,0.0005116313695907593,0.003371000289916992,XArbitraryZVertical,0.01848321383158339,0.005729959611557184,0.005851544138378909,0.999795647580395,0.01124126650393009,-0.03702593222260475,-0.9992510676383972,0,0,0,-1,-1,,,,,,,,,,,,,,,,,,1,0.71
2021-12-13 16:14:13.482 -0500,,,,,,,,,,16432.576017625,0.01763916015625,-0.0420074462890625,-0.995147705078125,16432.571048625,0.01161665428903688,0.01119454871362128,0.03700818827501409,-0.01033855602145195,0.0005520004779100418,0.03055467084050179,0.005323352292180061,-0.001879677176475525,0.001205801963806152,XArbitraryZVertical,0.01846993097563352,0.005703661796834732,0.0059107733298242,0.9997956956466356,0.01118665002286434,-0.03699973970651627,-0.9992526769638062,0,0,0,-1,-1,,,,,,,,,,,,,,,,,,1,0.71
2021-12-13 16:14:13.492 -0500,,,,,,,,,,16432.585956625,0.0191650390625,-0.04052734375,-1.0018310546875,16432.580986625,0.01206313172683668,0.01129180675431713,0.03699530744770248,0.002678708406165242,0.0222940482199192,0.05485495179891586,0.001899744383990765,-0.004623867571353912,0.006408452987670898,XArbitraryZVertical,0.01846191881013023,0.005756365371862639,0.006134828398987133,0.9997942473452127,0.01128384098410606,-0.03698686882853508,-0.9992520213127136,0,0,0,-1,-1,,,,,,,,,,,,,,,,,,1,0.71
2021-12-13 16:14:13.502 -0500,,,,,,,,,,16432.595894625,0.0178070068359375,-0.0390472412109375,-1.005813598632812,16432.590925625,0.01259072882233013,0.01150611755915074,0.03705219671747684,0.002191616222262383,0.0192871056497097,0.04619555175304413,0.006919384002685547,-0.004109255969524384,0.0002240538597106934,XArbitraryZVertical,0.01848815436759797,0.005868545103004911,0.006400711423493816,0.9997913499439234,0.01149796694517136,-0.03704372048377991,-0.9992474913597107,0,0,0,-1,-1,,,,,,,,,,,,,,,,,,1,0.71
2021-12-13 16:14:13.512 -0500,,,,,,,,,,16432.605833625,0.015106201171875,-0.032379150390625,-1.012588500976562,16432.600864625,0.01296791878790914,0.01154348820966723,0.03699177845243781,-0.01290025003254414,-0.003212343901395798,0.03037797100841999,0.007904353551566601,-0.002887893468141556,-0.00564873218536377,XArbitraryZVertical,0.01845672097702301,0.005890520460084916,0.006589441566315215,0.9997905926677428,0.01153533533215523,-0.03698334097862244,-0.999249279499054,0,0,0,-1,-1,,,,,,,,,,,,,,,,,,1,0.71
2021-12-13 16:14:13.522 -0500,,,,,,,,,,16432.615772625,0.0279083251953125,-0.0140380859375,-1.029083251953125,16432.610802625,0.01311834576573061,0.0115124778269055,0.03686358916380658,-0.007902029901742935,0.001781083643436432,-0.007916420698165894,0.004608870483934879,0.0007681809365749359,-0.008146107196807861,XArbitraryZVertical,0.01839229974722572,0.005875993138400833,0.006663991954809202,0.9997913789262146,0.01150440238416195,-0.03685523942112923,-0.9992544054985046,0,0,0,-1,-1,,,,,,,,,,,,,,,,,,1,0.71
2021-12-13 16:14:13.532 -0500,,,,,,,,,,16432.625710625,0.0068206787109375,-0.0145416259765625,-1.029464721679688,16432.620741625,0.01287655308452361,0.01166217126250381,0.03716194971359345,0.03660045564174652,0.01138018071651459,-0.04777728766202927,0.005481756292283535,0.01315129920840263,-0.01777189970016479,XArbitraryZVertical,0.01854166969573772,0.005949544950507249,0.006545349465398156,0.9997889538457386,0.01165385544300079,-0.03715339675545692,-0.9992415904998779,0,0,0,-1,-1,,,,,,,,,,,,,,,,,,1,0.71
2021-12-13 16:14:13.542 -0500,,,,,,,,,,16432.635649625,0.0008697509765625,-0.0176239013671875,-1.024490356445312,16432.630679625,0.01232325297328369,0.01138298975076885,0.03749331058009418,0.02166864462196827,-0.06215252727270126,-0.03897753357887268,0.004982669837772846,0.02448401227593422,-0.03822785615921021,XArbitraryZVertical,0.01870983597136218,0.005805856726548842,0.006267092844030833,0.9997884323688769,0.01137474458664656,-0.03748452663421631,-0.9992324709892273,0,0,0,-1,-1,,,,,,,,,,,,,,,,,,1,0.71
2021-12-13 16:14:13.552 -0500,,,,,,,,,,16432.645588625,0.019073486328125,-0.018524169921875,-1.029510498046875,16432.640618625,0.01224414017775882,0.01105396200917571,0.03782567834577748,0.05329208448529243,0.001079440116882324,0.02641692012548447,-0.00939788855612278,0.01996385306119919,-0.02427488565444946,XArbitraryZVertical,0.01887723878113251,0.005641637336840606,0.006225365820438349,0.9997864853699797,0.01104583032429218,-0.03781665861606598,-0.9992236495018005,0,0,0,-1,-1,,,,,,,,,,,,,,,,,,1,0.71
2021-12-13 16:14:13.561 -0500,,,,,,,,,,16432.655526625,0.01678466796875,-0.030181884765625,-1.017822265625,16432.650557625,0.0126081004408357,0.01123239500368738,0.0384355692200996,0.06564036011695862,0.02092348411679268,0.03628699481487274,0.001471441239118576,0.02187029644846916,-0.02886247634887695,XArbitraryZVertical,0.01918051879349118,0.005736158997255625,0.00641066644876748,0.9997790387002611,0.01122386287897825,-0.03842610493302345,-0.9991984367370605,0,0,0,-1,-1,,,,,,,,,,,,,,,,,,1,0.71
2021-12-13 16:14:13.571 -0500,,,,,,,,,,16432.665465625,0.012664794921875,-0.0488128662109375,-1.003494262695312,16432.660496625,0.01282769133126378,0.01129736528204721,0.03889783446981097,0.02416029945015907,-0.01225577387958765,0.01768561266362667,0.009524400345981121,0.01667121052742004,-0.02853012084960938,XArbitraryZVertical,0.01941075893599636,0.005772199960074307,0.006522337567291307,0.9997736270918016,0.01128857955336571,-0.03888802602887154,-0.9991797804832458,0,0,0,-1,-1,,,,,,,,,,,,,,,,,,1,0.71
2021-12-13 16:14:13.581 -0500,,,,,,,,,,16432.675403625,0.017791748046875,-0.0684661865234375,-1.001113891601562,16432.670434625,0.01358856550212931,0.01112841686458003,0.03910345302406191,0.0156291276216507,-0.01244901865720749,0.14473557472229,6.500445306301117e-05,0.003403156995773315,-0.00746387243270874,XArbitraryZVertical,0.01951193088153328,0.005695816564657087,0.006901606991486647,0.9997695272458734,0.01111968047916889,-0.03909348696470261,-0.9991737008094788,0,0,0,-1,-1,,,,,,,,,,,,,,,,,,1,0.71
2021-12-13 16:14:13.591 -0500,,,,,,,,,,16432.685342625,0.0013275146484375,-0.015380859375,-0.99603271484375,16432.680373625,0.01500471255979772,0.01096363309088257,0.03926043954938935,0.003888848703354597,-0.02138658799231052,0.1030339375138283,0.005387189798057079,-0.02863601967692375,-0.005774497985839844,XArbitraryZVertical,0.01958699303048337,0.005627838335195013,0.007608326273688622,0.9997634020519953,0.01095496490597725,-0.03925035521388054,-0.9991693496704102,0,0,0,-1,-1,,,,,,,,,,,,,,,,,,1,0.71
2021-12-13 16:14:13.601 -0500,,,,,,,,,,16432.695281625,0.0005645751953125,0.0030059814453125,-1.01129150390625,16432.690311625,0.0150340228301112,0.01055751700904682,0.03887417291795241,-0.0634467825293541,-0.06042247265577316,-0.1081675291061401,0.001291466876864433,-0.005004655569791794,0.002988278865814209,XArbitraryZVertical,0.01939537068280587,0.005423684071558964,0.007618010027038925,0.9997681358041102,0.0105493450537324,-0.0388643816113472,-0.9991887807846069,0,0,0,-1,-1,,,,,,,,,,,,,,,,,,1,0.71
2021-12-13 16:14:13.611 -0500,,,,,,,,,,16432.705219625,0.0038909912109375,-0.0399627685546875,-1.012420654296875,16432.700250625,0.0134779506153152,0.01006793471213242,0.03876555152337239,0.05156795307993889,-0.05283192545175552,-0.1657432019710541,-0.0130051551386714,0.04225008189678192,-0.001549601554870605,XArbitraryZVertical,0.01934695961403771,0.005163495504361063,0.006835136672731609,0.9997761239504818,0.01006020046770573,-0.03875584155321121,-0.9991980791091919,0,0,0,-1,-1,,,,,,,,,,,,,,,,,,1,0.71
2021-12-13 16:14:13.621 -0500,,,,,,,,,,16432.715158625,0.005401611328125,-0.052490234375,-0.9893951416015625,16432.710189625,0.01263519812998225,0.009593938107143374,0.0390236757423467,0.006880910135805607,-0.05220681428909302,-0.002928187139332294,-0.005741280503571033,0.02258003503084183,-0.02052164077758789,XArbitraryZVertical,0.01947968700516634,0.00491919982156398,0.006409871420973157,0.9997775912186591,0.009586486965417862,-0.03901377320289612,-0.9991927146911621,0,0,0,-1,-1,,,,,,,,,,,,,,,,,,1,0.71
2021-12-13 16:14:13.631 -0500,,,,,,,,,,16432.725097625,0.006683349609375,-0.036346435546875,-0.9998779296875,16432.720127625,0.01270062308227219,0.008968339573753103,0.03911886163521949,0.01071985624730587,-0.06104318797588348,-0.01071527041494846,-0.004810974933207035,-0.01731814071536064,0.004413306713104248,XArbitraryZVertical,0.01952912330794567,0.004607405295361333,0.006436690756653218,0.9997779144160279,0.008961358107626438,-0.03910888358950615,-0.9991947412490845,0,0,0,-1,-1,,,,,,,,,,,,,,,,,,1,0.71
2021-12-13 16:14:13.641 -0500,,,,,,,,,,16432.735035625,0.0044403076171875,-0.02947998046875,-0.996307373046875,16432.730066625,0.01244074922715425,0.008431094855516935,0.03918053199142044,0.01070254668593407,-0.04559342563152313,-0.03104544244706631,-0.001313936896622181,-0.002989545464515686,0.004064619541168213,XArbitraryZVertical,0.01956224405082721,0.004336493905940594,0.006301662605573764,0.9997793194154939,0.008424524217844009,-0.03917050734162331,-0.9991970062255859,0,0,0,-1,-1,,,,,,,,,,,,,,,,,,1,0.71
2021-12-13 16:14:13.651 -0500,,,,,,,,,,16432.744974625,0.01263427734375,-0.0443267822265625,-1.002517700195312,16432.740005625,0.01227863859397024,0.00814080391476619,0.03932611759685944,0.02036049962043762,-0.01786831952631474,0.002525035291910172,-0.002076688222587109,0.01037003472447395,0.001390993595123291,XArbitraryZVertical,0.01963627415775378,0.004190235488264541,0.00621807283956723,0.9997790592597769,0.008134420029819012,-0.03931597992777824,-0.9991937279701233,0,0,0,-1,-1,,,,,,,,,,,,,,,,,,1,0.71
2021-12-13 16:14:13.661 -0500,,,,,,,,,,16432.754913625,0.0093841552734375,-0.04302978515625,-0.9912109375,16432.749943625,0.01221754558980104,0.008073404960074023,0.0395514832730293,0.02116850204765797,-0.004174709320068359,-0.02743885666131973,-0.000559687614440918,0.0008143410086631775,-0.001836955547332764,XArbitraryZVertical,0.01974926865026607,0.004156622873913383,0.006187312549349584,0.9997771630820869,0.008067003451287746,-0.03954117372632027,-0.9991853833198547,0,0,0,-1,-1,,,,,,,,,,,,,,,,,,1,0.71
2021-12-13 16:14:13.694 -0500,,,,,,,,,,16432.764851625,0.0136871337890625,-0.0709228515625,-0.9913482666015625,16432.759882625,0.01169464160602603,0.00786880640057303,0.03951598211137374,-0.03742024302482605,-0.05028201639652252,-0.0717485323548317,0.004802204668521881,-0.001113221049308777,-0.001025199890136719,XArbitraryZVertical,0.01973321304576744,0.004049079940981297,0.005923830006809998,0.9997795741964653,0.007862582802772522,-0.03950569778680801,-0.9991884231567383,0,0,0,-1,-1,,,,,,,,,,,,,,,,,,1,0.71
2021-12-13 16:14:13.696 -0500,,,,,,,,,,16432.774790625,-0.0037841796875,-0.0551605224609375,-0.9996490478515625,16432.769821625,0.01112296168680694,0.007299023762145595,0.0391921636722564,-0.02314596436917782,-0.0590960830450058,-0.03286264836788177,0.003601413685828447,-0.01716860011219978,0.01194655895233154,XArbitraryZVertical,0.01957410235253612,0.003757721797184168,0.005631857899241907,0.99978544266755,0.007293353788554668,-0.03918213024735451,-0.999205470085144,0,0,0,-1,-1,,,,,,,,,,,,,,,,,,1,0.71
2021-12-13 16:14:13.698 -0500,,,,,,,,,,16432.784729625,-0.021209716796875,-0.011444091796875,-0.9937591552734375,16432.779759625,0.01099809226649876,0.006755917246434067,0.03888529333735943,-0.02364983409643173,-0.04248487949371338,-0.0116505715996027,0.002648647874593735,-0.03454982489347458,0.002715528011322021,XArbitraryZVertical,0.01942244418944286,0.003484170670888187,0.005563618693493505,0.9997898560898424,0.006750758737325668,-0.03887549415230751,-0.9992212653160095,0,0,0,-1,-1,,,,,,,,,,,,,,,,,,1,0.71
2021-12-13 16:14:13.700 -0500,,,,,,,,,,16432.794667625,-0.0009613037109375,-0.026397705078125,-1.014617919921875,16432.789698625,0.01073490880743613,0.006428875713120121,0.03866942425248676,-0.004124336410313845,-0.03310136497020721,-0.03018191084265709,-0.02392586506903172,0.009957984089851379,0.002954959869384766,XArbitraryZVertical,0.01931587952422678,0.003317555979338422,0.00542854315796187,0.9997931678658789,0.006424025632441044,-0.03865978866815567,-0.99923175573349,0,0,0,-1,-1,,,,,,,,,,,,,,,,,,1,0.71
2021-12-13 16:14:13.711 -0500,,,,,,,,,,16432.804606625,0.0086517333984375,-0.0351715087890625,-1.019332885742188,16432.799637625,0.0105806112151574,0.006078290392089497,0.03879516018113966,0.02224601805210114,-0.0376598984003067,0.003592030145227909,-0.01875374093651772,0.02410645037889481,-0.003334343433380127,XArbitraryZVertical,0.01937992734028104,0.003141137913564762,0.005348208581430484,0.9997929758827135,0.006073679309338331,-0.0387854278087616,-0.9992291331291199,0,0,0,-1,-1,,,,,,,,,,,,,,,,,,1,0.71
2021-12-13 16:14:13.720 -0500,,,,,,,,,,16432.814545625,0.013397216796875,-0.0336151123046875,-1.007354736328125,16432.809575625,0.01060175258297429,0.005788951033765476,0.03911644713238117,0.04155899584293365,-0.02103638276457787,-0.007247834000736475,0.0005021225661039352,0.005445562303066254,-0.02121317386627197,XArbitraryZVertical,0.01954128057284987,0.002997545560457475,0.005356421991072065,0.9997901670056849,0.005784490611404181,-0.03910647332668304,-0.9992182850837708,0,0,0,-1,-1,,,,,,,,,,,,,,,,,,1,0.71
2021-12-13 16:14:13.730 -0500,,,,,,,,,,16432.824483625,0.016387939453125,-0.0587921142578125,-0.9954986572265625,16432.819514625,0.01032627773246713,0.005584670027246981,0.03946721115034446,0.03308588266372681,-0.021241445094347,-0.0405605174601078,0.005711204372346401,0.007215119898319244,-0.01400840282440186,XArbitraryZVertical,0.01971757179950045,0.002893630578523068,0.005217189322610241,0.9997877280339096,0.005580292083323002,-0.03945696726441383,-0.9992057085037231,0,0,0,-1,-1,,,,,,,,,,,,,,,,,,1,0.71
2021-12-13 16:14:13.740 -0500,,,,,,,,,,16432.834422625,0.0082855224609375,-0.0549163818359375,-0.9891510009765625,16432.829453625,0.0101211554275408,0.005377854568377689,0.0397677587886045,0.02526843920350075,-0.0200016088783741,-0.0001294710673391819,0.009900463744997978,-0.005942817777395248,-0.002605617046356201,XArbitraryZVertical,0.01986863853123898,0.00278897466047645,0.005112999650610368,0.9997856056341515,0.005373576655983925,-0.03975727781653404,-0.9991949200630188,0,0,0,-1,-1,,,,,,,,,,,,,,,,,,1,0.71
2021-12-13 16:14:13.750 -0500,,,,,,,,,,16432.844361625,0.0047454833984375,-0.0390777587890625,-0.9957122802734375,16432.839391625,0.01020592636899492,0.00524050400538089,0.03999495688144091,0.02182443998754025,-0.009196898899972439,0.01157139241695404,0.008389800786972046,-0.02227158471941948,0.00858604907989502,XArbitraryZVertical,0.01998244892619365,0.002721729882804978,0.005154297579178412,0.9997833107846785,0.005236289463937283,-0.03998429328203201,-0.9991865754127502,0,0,0,-1,-1,,,,,,,,,,,,,,,,,,1,0.71
2021-12-13 16:14:13.760 -0500,,,,,,,,,,16432.854299625,0.0069580078125,-0.0386199951171875,-0.998779296875,16432.849330625,0.01019791471475187,0.005197879319827305,0.04026281276784125,0.02500691823661327,-0.002751883119344711,-0.01361744944006205,-0.0004786849021911621,-0.00524979829788208,0.007873594760894775,XArbitraryZVertical,0.02011646800773855,0.002701017816726037,0.005150200932264232,0.999780721044024,0.005193643271923065,-0.04025193676352501,-0.9991760849952698,0,0,0,-1,-1,,,,,,,,,,,,,,,,,,1,0.71
2021-12-13 16:14:13.770 -0500,,,,,,,,,,16432.864238625,0.0169219970703125,-0.0502166748046875,-1.001068115234375,16432.859269625,0.01002902893645293,0.005182305292818539,0.04055715745156058,0.01889522932469845,-0.001433352008461952,-0.01969771273434162,-0.0003257333301007748,0.002536371350288391,0.001254737377166748,XArbitraryZVertical,0.02026387578120157,0.002692263987663726,0.005065986325127572,0.9997781823288462,0.005178020335733891,-0.04054604098200798,-0.9991642832756042,0,0,0,-1,-1,,,,,,,,,,,,,,,,,,1,0.71
2021-12-13 16:14:13.780 -0500,,,,,,,,,,16432.874177625,0.0232696533203125,-0.0557861328125,-0.99749755859375,16432.869207625,0.009887954114813571,0.005084997054031961,0.04072106101485649,0.02051815949380398,-0.009280921891331673,-0.01338029466569424,0.006866864860057831,-0.003266047686338425,-0.0006893277168273926,XArbitraryZVertical,0.02034624256249172,0.00264259215652797,0.004994678763019553,0.9997769870418386,0.005080759525299072,-0.04070980846881866,-0.9991580843925476,0,0,0,-1,-1,,,,,,,,,,,,,,,,,,1,0.71
2021-12-13 16:14:13.790 -0500,,,,,,,,,,16432.884115625,0.0229949951171875,-0.0603179931640625,-0.9989166259765625,16432.879146625,0.009765130106305942,0.004963219479882994,0.04082248027800592,0.01194890588521957,-0.008207135833799839,-0.008010829798877239,0.01470950804650784,-0.01369327679276466,-0.0008454322814941406,XArbitraryZVertical,0.02039740276556968,0.002580712285759465,0.004932162147580386,0.999776452803235,0.004959064070135355,-0.04081114381551743,-0.9991545677185059,0,0,0,-1,-1,,,,,,,,,,,,,,,,,,1,0.71
2021-12-13 16:14:13.800 -0500,,,,,,,,,,16432.894054625,0.0084381103515625,-0.059783935546875,-0.9923858642578125,16432.889085625,0.009805291932083439,0.004904294419889323,0.0409804823824555,0.02240421064198017,-0.008251678198575974,0.01862397789955139,0.01940708607435226,-0.01670923084020615,0.002886831760406494,XArbitraryZVertical,0.02047647969243591,0.002552049142360088,0.004951823244283692,0.9997748375567492,0.004900156985968351,-0.04096901416778564,-0.999148428440094,0,0,0,-1,-1,,,,,,,,,,,,,,,,,,1,0.71
2021-12-13 16:14:13.810 -0500,,,,,,,,,,16432.903993625,0.000823974609375,-0.0548553466796875,-0.9899749755859375,16432.899023625,0.01005434747994248,0.004724096731424677,0.04112734834917376,0.009095595218241215,-0.021722212433815,0.02697059139609337,0.01151525974273682,-0.02007201313972473,0.0007148981094360352,XArbitraryZVertical,0.02055003526844554,0.00246488600611033,0.005074643834525498,0.9997729384243765,0.004720084369182587,-0.04111575335264206,-0.9991432428359985,0,0,0,-1,-1,,,,,,,,,,,,,,,,,,1,0.71
2021-12-13 16:14:13.820 -0500,,,,,,,,,,16432.913931625,0.0035247802734375,-0.052886962890625,-0.9954986572265625,16432.908962625,0.01028759446553881,0.004467393121998162,0.0412219987481776,0.008391454815864563,-0.03276008367538452,0.02325255051255226,-0.002296843100339174,-0.01689516380429268,0.01111871004104614,XArbitraryZVertical,0.02059772788804999,0.002339201168224127,0.005188703750388823,0.9997716904678331,0.00446358323097229,-0.04121032357215881,-0.9991405010223389,0,0,0,-1,-1,,,,,,,,,,,,,,,,,,1,0.71
2021-12-13 16:14:13.830 -0500,,,,,,,,,,16432.923870625,0.0125885009765625,-0.0493011474609375,-1.001800537109375,16432.918901625,0.01057287092460332,0.004228669403138737,0.04133283436952725,0.006861735135316849,-0.01343485433608294,0.03239544853568077,-0.001768388319760561,-0.0109097883105278,0.004004597663879395,XArbitraryZVertical,0.0206534347586987,0.002223095054432522,0.005328961711162317,0.9997700969038622,0.004225044976919889,-0.04132106527686119,-0.9991369843482971,0,0,0,-1,-1,,,,,,,,,,,,,,,,,,1,0.71
2021-12-13 16:14:13.840 -0500,,,,,,,,,,16432.933809625,0.0158843994140625,-0.0473785400390625,-1.006332397460938,16432.928839625,0.01085582459674108,0.00417371388660097,0.04142519104560318,0.009184278547763824,-0.001144665293395519,0.0212145671248436,0.003581336699426174,-0.009398449212312698,0.001941025257110596,XArbitraryZVertical,0.02069943882911296,0.00219879429484618,0.005469929819042006,0.9997683989772993,0.004170121159404516,-0.04141334444284439,-0.9991334080696106,0,0,0,-1,-1,,,,,,,,,,,,,,,,,,1,0.71
2021-12-13 16:14:13.850 -0500,,,,,,,,,,16432.94374741667,0.0070953369140625,-0.0415802001953125,-1.003082275390625,16432.93877841667,0.01090844306827398,0.004053160452677942,0.04143251348597812,-0.008761432021856308,-0.02465931326150894,-0.01343315839767456,0.01162109803408384,-0.007438007742166519,-0.007015705108642578,XArbitraryZVertical,0.02070337346320538,0.00213909604204637,0.005494992493310376,0.9997682680627997,0.00404967088252306,-0.04142066091299057,-0.9991335868835449,0,0,0,-1,-1,,,,,,,,,,,,,,,,,,1,0.71
2021-12-13 16:14:13.860 -0500,,,,,,,,,,16432.95368641667,0.0108489990234375,-0.0412139892578125,-1.0042724609375,16432.94871741667,0.01072845844980841,0.003779203883985444,0.04133269832976022,-0.01241076178848743,-0.02727510407567024,-0.009173300117254257,0.007195094600319862,-0.003082163631916046,-0.004187583923339844,XArbitraryZVertical,0.02065440988656233,0.002000020545428273,0.005402096261330456,0.9997700784790463,0.003775967285037041,-0.04132093116641045,-0.9991387724876404,0,0,0,-1,-1,,,,,,,,,,,,,,,,,,1,0.71
2021-12-13 16:14:13.870 -0500,,,,,,,,,,16432.96362541667,0.01312255859375,-0.03179931640625,-1.008438110351562,16432.95865541667,0.01090148379771808,0.003652332500551978,0.04132927400753124,0.007554689887911081,-0.003997476771473885,0.03526394069194794,0.003781817387789488,0.001431010663509369,-0.00385129451751709,XArbitraryZVertical,0.02065287298052159,0.001938377042231867,0.005487275819647149,0.9997697757506133,0.003649205435067415,-0.04131750762462616,-0.9991394281387329,0,0,0,-1,-1,,,,,,,,,,,,,,,,,,1,0.71
2021-12-13 16:14:13.879 -0500,,,,,,,,,,16432.97356341667,0.01263427734375,-0.032470703125,-1.007186889648438,16432.96859441667,0.01121702432695395,0.003762532634452792,0.04152394132048453,0.02534966543316841,0.01596667803823948,0.0247749462723732,0.008966541849076748,0.004845120012760162,-0.008010149002075195,XArbitraryZVertical,0.02074956538290089,0.001997264574050668,0.005646318974906687,0.9997668466860939,0.003759280545637012,-0.04151200875639915,-0.99913090467453,0,0,0,-1,-1,,,,,,,,,,,,,,,,,,1,0.71
2021-12-13 16:14:13.889 -0500,,,,,,,,,,16432.98350241667,0.0094451904296875,-0.0352783203125,-1.003326416015625,16432.97853341667,0.01147848493715366,0.00397352499776276,0.04183887882962725,0.02950526215136051,0.0253367442637682,0.03132499009370804,0.01049528736621141,0.01077501475811005,-0.008375048637390137,XArbitraryZVertical,0.0209061274414569,0.002106345797826342,0.005779501960883171,0.9997625413906865,0.003970037214457989,-0.04182667285203934,-0.9991170167922974,0,0,0,-1,-1,,,,,,,,,,,,,,,,,,1,0.71
2021-12-13 16:14:13.899 -0500,,,,,,,,,,16432.99344141667,0.0082244873046875,-0.0399322509765625,-1.000534057617188,16432.98847141667,0.01185630573573546,0.004299947923552643,0.04220859111554905,0.03391944989562035,0.03967177495360374,0.0402965173125267,0.006201934535056353,0.007863759994506836,-0.006133675575256348,XArbitraryZVertical,0.02108956714284978,0.002274554968330728,0.005972153871164697,0.9997571564453955,0.00429610488936305,-0.04219605773687363,-0.9991000890731812,0,0,0,-1,-1,,,,,,,,,,,,,,,,,,1,0.71
2021-12-13 16:14:13.909 -0500,,,,,,,,,,16433.00337941667,0.00238037109375,-0.049285888671875,-1.005599975585938,16432.99841041667,0.01213763962858602,0.004555908743081434,0.04251106259920523,0.02193203195929527,0.00829228013753891,0.01254451181739569,0.006037815473973751,0.005999211221933365,-0.003706157207489014,XArbitraryZVertical,0.02123966380509022,0.002406381147084,0.00611581073037638,0.9997527724129808,0.004551777150481939,-0.04249826073646545,-0.9990862011909485,0,0,0,-1,-1,,,,,,,,,,,,,,,,,,1,0.71
2021-12-13 16:14:13.919 -0500,,,,,,,,,,16433.01331841667,0.00262451171875,-0.0487060546875,-0.999786376953125,16433.00834941667,0.01218932475495465,0.004474124986892893,0.04273125876333438,0.009705725125968456,-0.01112745702266693,0.008635391481220722,0.002335385885089636,-0.002905543893575668,-0.001289010047912598,XArbitraryZVertical,0.02134992322053366,0.002366713831936067,0.006141010217007182,0.9997503788893188,0.00447002612054348,-0.04271825402975082,-0.9990771412849426,0,0,0,-1,-1,,,,,,,,,,,,,,,,,,1,0.71
2021-12-13 16:14:13.929 -0500,,,,,,,,,,16433.02325641667,-0.0063018798828125,-0.0470733642578125,-1.004928588867188,16433.01828741667,0.01242345431764611,0.004418741033168817,0.04281403303132562,0.01311377249658108,-0.00402374193072319,0.02998488768935204,-0.003239758778363466,-0.007003754377365112,-0.005839407444000244,XArbitraryZVertical,0.02139119498153541,0.002341783027508495,0.006257540113410301,0.9997488845727314,0.004414677619934082,-0.04280095547437668,-0.99907386302948,0,0,0,-1,-1,,,,,,,,,,,,,,,,,,1,0.71
2021-12-13 16:14:13.939 -0500,,,,,,,,,,16433.03319541667,-0.0071868896484375,-0.045562744140625,-0.9975128173828125,16433.02822641667,0.01258894655532503,0.004405390705962794,0.04296943718451075,0.01116114296019077,-0.008012425154447556,0.003064857795834541,-0.003958812914788723,-0.006253402680158615,-0.003160536289215088,XArbitraryZVertical,0.02146872658096014,0.002337364956377892,0.006340283448346404,0.9997466826732254,0.004401309881359339,-0.04295621439814568,-0.9990672469139099,0,0,0,-1,-1,,,,,,,,,,,,,,,,,,1,0.71
2021-12-13 16:14:13.949 -0500,,,,,,,,,,16433.04313441667,-0.0068511962890625,-0.0489654541015625,-0.997650146484375,16433.03816441667,0.01253063045254776,0.004224216035247895,0.04304238130314626,0.008468952961266041,-0.03271963447332382,-0.0133732371032238,-0.01171236392110586,-0.001007799059152603,-0.001301288604736328,XArbitraryZVertical,0.02150582830569451,0.002246401249457383,0.006309259791530387,0.9997463310412404,0.004220291040837765,-0.04302909225225449,-0.9990649223327637,0,0,0,-1,-1,,,,,,,,,,,,,,,,,,1,0.71
2021-12-13 16:14:13.959 -0500,,,,,,,,,,16433.05307241667,-0.002838134765625,-0.043121337890625,-1.001235961914062,16433.04810341667,0.01239800713005247,0.00386818507694423,0.04308425189592417,0.002115183509886265,-0.03854979574680328,-0.008033200167119503,-0.0120127871632576,-0.006871115416288376,0.0001174211502075195,XArbitraryZVertical,0.02152801883900885,0.002067133681848306,0.00623917431269938,0.9997466517911527,0.003864585887640715,-0.04307092353701591,-0.999064564704895,0,0,0,-1,-1,,,,,,,,,,,,,,,,,,1,0.71
2021-12-13 16:14:13.969 -0500,,,,,,,,,,16433.06301141667,0.0031890869140625,-0.043853759765625,-1.001983642578125,16433.05804241667,0.01252373769080419,0.003695577945230407,0.04311474293430786,0.009397863410413265,0.001120386645197868,0.03412730246782303,-0.0083308145403862,-0.001896806061267853,0.0003914237022399902,XArbitraryZVertical,0.02154367478808943,0.001982300255588082,0.006300191943272828,0.9997460815167707,0.003692135214805603,-0.04310138523578644,-0.9990639090538025,0,0,0,-1,-1,,,,,,,,,,,,,,,,,,1,0.71
2021-12-13 16:14:13.979 -0500,,,,,,,,,,16433.07295041667,-0.0044403076171875,-0.04437255859375,-0.98992919921875,16433.06798041667,0.01295484415465257,0.00394121879005901,0.04318465528650601,0.003510679816827178,0.04505801945924759,0.04485078901052475,-0.002838908694684505,0.0006907433271408081,-0.003686666488647461,XArbitraryZVertical,0.02157739421222908,0.002109958000185716,0.006518400302043557,0.9997436761210544,0.003937534056603909,-0.0431712344288826,-0.9990599155426025,0,0,0,-1,-1,,,,,,,,,,,,,,,,,,1,0.71
2021-12-13 16:14:13.989 -0500,,,,,,,,,,16433.08288841667,-0.0029754638671875,-0.039459228515625,-0.9857025146484375,16433.07791941667,0.01306788492879065,0.004537715914694531,0.04306462194253015,-0.004346444737166166,0.04754753410816193,0.001346186734735966,-0.003434868063777685,-0.001229718327522278,0.001366674900054932,XArbitraryZVertical,0.02151531187922674,0.002408960389621828,0.006581213669389092,0.999743918486796,0.004533493425697088,-0.04305131360888481,-0.9990625977516174,0,0,0,-1,-1,,,,,,,,,,,,,,,,,,1,0.71
2021-12-13 16:14:13.999 -0500,,,,,,,,,,16433.09282741667,-0.0093231201171875,-0.0314178466796875,-0.990264892578125,16433.08785841667,0.01286711526988215,0.005045874670285975,0.04285062860416758,-0.01664678566157818,0.0413956344127655,-0.01935802586376667,-0.007436858955770731,-0.0003753975033760071,0.01026928424835205,XArbitraryZVertical,0.02140693702113028,0.002660132612195578,0.00648606593913767,0.9997462183119884,0.005041221622377634,-0.04283751547336578,-0.9990693330764771,0,0,0,-1,-1,,,,,,,,,,,,,,,,,,1,0.71
2021-12-13 16:14:14.009 -0500,,,,,,,,,,16433.10276641667,-0.010284423828125,-0.0337371826171875,-0.9832000732421875,16433.09779641667,0.012504475044438,0.005115582731601446,0.0429299964160651,0.01495188660919666,0.01234774105250835,-0.04354831576347351,-0.0103446189314127,0.004891887307167053,0.0132715106010437,XArbitraryZVertical,0.02144687311872211,0.00269134216225721,0.0063056340023128,0.9997464339626861,0.005110847298055887,-0.04291681200265884,-0.9990655779838562,0,0,0,-1,-1,,,,,,,,,,,,,,,,,,1,0.71
2021-12-13 16:14:14.019 -0500,,,,,,,,,,16433.11270441667,0.00921630859375,-0.0691375732421875,-0.990234375,16433.10773541667,0.01247922581830341,0.005382195309383198,0.04301705419897538,0.03420440852642059,0.03989208489656448,0.04942236840724945,-0.02103271521627903,0.01413413509726524,0.0008457303047180176,XArbitraryZVertical,0.02148958568176511,0.002824612884784602,0.006295982762471408,0.9997452183382319,0.005377190187573433,-0.04300379008054733,-0.9990604519844055,0,0,0,-1,-1,,,,,,,,,,,,,,,,,,1,0.71
2021-12-13 16:14:14.029 -0500,,,,,,,,,,16433.12264341667,-0.00164794921875,-0.0400390625,-0.9774322509765625,16433.11767441667,0.01334492782564814,0.005717751080491728,0.0428703940944707,-0.0677856057882309,0.0272322166711092,0.09378184378147125,-0.002904856577515602,-0.00993816927075386,0.0147508978843689,XArbitraryZVertical,0.02141391892551962,0.003001164125279765,0.006732128487960756,0.9997435616118472,0.005712466314435005,-0.04285726323723793,-0.9990648627281189,0,0,0,-1,-1,,,,,,,,,,,,,,,,,,1,0.71
2021-12-13 16:14:14.038 -0500,,,,,,,,,,16433.13258241667,-0.00457763671875,-0.0295867919921875,-1.003921508789062,16433.12761241667,0.01350945043776002,0.005629590268666741,0.04233707825148524,-0.04362460970878601,-0.03902367129921913,-0.05896629020571709,5.969777703285217e-06,-0.01874126493930817,0.0171239972114563,XArbitraryZVertical,0.02114738182992789,0.002957071772364576,0.006812712667418685,0.9997488263298523,0.005624515935778618,-0.04232443124055862,-0.9990881085395813,0,0,0,-1,-1,,,,,,,,,,,,,,,,,,1,0.71
2021-12-13 16:14:14.048 -0500,,,,,,,,,,16433.14252041667,0.009796142578125,-0.040435791015625,-1.012359619140625,16433.13755141667,0.01283066638642631,0.005296656117190031,0.04184562884993216,-0.04378626495599747,-0.01366638299077749,-0.05741872638463974,-0.01607996597886086,0.01189565286040306,0.008860945701599121,XArbitraryZVertical,0.02090379867432521,0.002781906570935559,0.006469268004028483,0.9997566573303949,0.005291994661092758,-0.04183341935276985,-0.9991105794906616,0,0,0,-1,-1,,,,,,,,,,,,,,,,,,1,0.71
2021-12-13 16:14:14.058 -0500,,,,,,,,,,16433.15245941667,0.0091400146484375,-0.040863037109375,-1.011459350585938,16433.14749041667,0.01271588544625379,0.005582158772244497,0.04216913939451586,0.1096712052822113,0.06474266946315765,0.02082361467182636,-0.0001755636185407639,0.00878564640879631,-0.007221698760986328,XArbitraryZVertical,0.02106475765569243,0.00292444208862989,0.006415304977494384,0.9997532617231151,0.005577167496085167,-0.0421566441655159,-0.9990954399108887,0,0,0,-1,-1,,,,,,,,,,,,,,,,,,1,0.71
2021-12-13 16:14:14.068 -0500,,,,,,,,,,16433.16239841667,0.0125579833984375,-0.0453643798828125,-0.997802734375,16433.15742841667,0.01274506336190891,0.006230902667009183,0.0432342707408948,0.08757628500461578,0.05703548341989517,-0.01643454097211361,0.0004125256091356277,-0.001289106905460358,-0.01859301328659058,XArbitraryZVertical,0.02159506017178986,0.003252398815434656,0.00643830937393236,0.9997407468306254,0.006225039716809988,-0.04322080314159393,-0.9990461468696594,0,0,0,-1,-1,,,,,,,,,,,,,,,,,,1,0.71
2021-12-13 16:14:14.078 -0500,,,,,,,,,,16433.17233641667,0.0152130126953125,-0.048187255859375,-1.010360717773438,16433.16736741667,0.01253082144954437,0.006679654800261005,0.04414871401867625,0.1162651926279068,0.04341388121247292,-0.01899836584925652,0.004053824115544558,0.00337812677025795,-0.002598822116851807,XArbitraryZVertical,0.02205108796577642,0.003477233997579971,0.006337525370187093,0.9997307069784566,0.006673096679151058,-0.04413437470793724,-0.9990032911300659,0,0,0,-1,-1,,,,,,,,,,,,,,,,,,1,0.71
2021-12-13 16:14:14.088 -0500,,,,,,,,,,16433.18227541667,0.007110595703125,-0.014434814453125,-1.003631591796875,16433.17730641667,0.01267531635759514,0.007117368319210221,0.04508247461727555,0.04069080203771591,0.05017218738794327,0.0516345240175724,0.006821190007030964,-0.003028519451618195,-0.00264352560043335,XArbitraryZVertical,0.02251618487129723,0.003700545765027291,0.006416174053333994,0.9997190593406469,0.007110076956450939,-0.0450672060251236,-0.9989586472511292,0,0,0,-1,-1,,,,,,,,,,,,,,,,,,1,0.71
2021-12-13 16:14:14.098 -0500,,,,,,,,,,16433.19221441667,-0.004547119140625,-0.0159454345703125,-1.025177001953125,16433.18724441667,0.01327795278300373,0.007464031316915489,0.0449252518998657,-0.03544897213578224,0.02438895776867867,0.05422511324286461,0.008702619001269341,0.001483608037233353,-0.01418983936309814,XArbitraryZVertical,0.02243531409575553,0.003880097219719677,0.006721027970451668,0.9997182300694396,0.007456431165337563,-0.04491014033555984,-0.9989631772041321,0,0,0,-1,-1,,,,,,,,,,,,,,,,,,1,0.71
2021-12-13 16:14:14.108 -0500,,,,,,,,,,16433.20215241667,0.0246124267578125,-0.039093017578125,-1.027297973632812,16433.19718341667,0.01389899171400721,0.00751859686366411,0.04442971622486425,-0.06583883613348007,0.001340895891189575,0.074477918446064,-0.01337048970162868,0.04369791224598885,-0.0116962194442749,XArbitraryZVertical,0.02218621973241267,0.003912638404461205,0.007031179518545067,0.9997214465157673,0.007511106319725513,-0.04441510140895844,-0.9989849328994751,0,0,0,-1,-1,,,,,,,,,,,,,,,,,,1,0.71
2021-12-13 16:14:14.118 -0500,,,,,,,,,,16433.21209141667,0.020355224609375,-0.0384674072265625,-1.006805419921875,16433.20712241667,0.01457388278536986,0.007571802708995163,0.04364935770154511,-0.1068507134914398,0.01010356284677982,0.04906976595520973,0.003543872851878405,0.01073752343654633,-0.03015589714050293,XArbitraryZVertical,0.02179463108495196,0.003943910455645749,0.007367706919381167,0.9997274808191214,0.007564518600702286,-0.04363549873232841,-0.9990189075469971,0,0,0,-1,-1,,,,,,,,,,,,,,,,,,1,0.71
2021-12-13 16:14:14.128 -0500,,,,,,,,,,16433.22203041667,0.008087158203125,-0.053070068359375,-0.9956207275390625,16433.21706041667,0.01478918060640345,0.007732005703014676,0.04258080829462092,-0.09165365248918533,0.03147836029529572,0.001191723626106977,0.01807768456637859,0.003978442400693893,-0.02055907249450684,XArbitraryZVertical,0.02125947389282933,0.00402243069255335,0.007475091902669134,0.9997379570043178,0.00772492028772831,-0.04256794229149818,-0.9990637302398682,0,0,0,-1,-1,,,,,,,,,,,,,,,,,,1,0.71
2021-12-13 16:14:14.138 -0500,,,,,,,,,,16433.23196841667,-0.00439453125,-0.0439453125,-0.9988250732421875,16433.22699941667,0.01485682938309622,0.008093625330035922,0.04183561028638748,-0.0608225017786026,0.02933231741189957,0.009805452078580856,0.004410484805703163,-0.002274516969919205,0.002708613872528076,XArbitraryZVertical,0.02088547762897758,0.004201176929571287,0.007511302432816877,0.9997447963634147,0.008086455054581165,-0.04182340949773788,-0.9990922808647156,0,0,0,-1,-1,,,,,,,,,,,,,,,,,,1,0.71
2021-12-13 16:14:14.148 -0500,,,,,,,,,,16433.24190741667,-0.0025634765625,-0.0323028564453125,-1.017135620117188,16433.23693841667,0.01522474054061002,0.008052111933324044,0.0411328791450812,-0.09481509029865265,-0.04767591506242752,0.09546016901731491,-0.00616839062422514,-0.01294063404202461,0.002387166023254395,XArbitraryZVertical,0.02053358628732179,0.004181622571083668,0.007693418394289303,0.9997508162269432,0.008045214228332043,-0.04112128168344498,-0.9991217851638794,0,0,0,-1,-1,,,,,,,,,,,,,,,,,,1,0.71
2021-12-13 16:14:14.158 -0500,,,,,,,,,,16433.25184641667,0.019775390625,-0.022308349609375,-1.048980712890625,16433.24687641667,0.01629577169561428,0.007925159822755568,0.04066918453042236,0.006780242547392845,0.0406084731221199,0.1332341879606247,-0.01786726154386997,-0.0003424137830734253,-0.00763314962387085,XArbitraryZVertical,0.02030007716045121,0.004127288271589335,0.008226616409115567,0.999751549747084,0.007918523624539375,-0.04065797477960587,-0.9991417527198792,0,0,0,-1,-1,,,,,,,,,,,,,,,,,,1,0.71
2021-12-13 16:14:14.177 -0500,,,,,,,,,,16433.26178441667,0.0222320556640625,-0.036407470703125,-1.01666259765625,16433.25681541667,0.0182155175574635,0.007860751530826148,0.04012350747434394,-0.1283647865056992,-0.0247148722410202,0.2378980070352554,0.00554286502301693,0.02599833905696869,-0.03300124406814575,XArbitraryZVertical,0.02002363245910258,0.004112113287995297,0.009184571497931091,0.9997488379700751,0.007854344323277473,-0.04011274129152298,-0.9991642832756042,0,0,0,-1,-1,,,,,,,,,,,,,,,,,,1,0.71
2021-12-13 16:14:14.196 -0500,,,,,,,,,,16433.27172341667,0.0147247314453125,-0.0597381591796875,-1.00115966796875,16433.26675441667,0.02060428593450775,0.007673939698110697,0.03896983536266529,-0.09544679522514343,-0.002279671840369701,0.2313950955867767,0.01520487852394581,0.009403672069311142,-0.04545110464096069,XArbitraryZVertical,0.01944298723436987,0.004036747308231021,0.01037468379588942,0.9997489611980863,0.007668038364499807,-0.03895997256040573,-0.9992113709449768,0,0,0,-1,-1,,,,,,,,,,,,,,,,,,1,0.71
2021-12-13 16:14:14.198 -0500,,,,,,,,,,16433.28166241667,0.0167999267578125,-0.0577239990234375,-0.9902801513671875,16433.27669241667,0.0227670027066139,0.007345531310389255,0.03803737093233546,-0.08701150119304657,-0.04656990617513657,0.1947246938943863,0.01054313965141773,-0.01113563776016235,-0.003008544445037842,XArbitraryZVertical,0.01897437838391256,0.00388833536150075,0.0114509625120615,0.9997468196749346,0.007340151816606522,-0.03802819922566414,-0.9992496967315674,0,0,0,-1,-1,,,,,,,,,,,,,,,,,,1,0.71
2021-12-13 16:14:14.199 -0500,,,,,,,,,,16433.29160041667,0.0117950439453125,-0.055023193359375,-1.000839233398438,16433.28663141667,0.02472507708591829,0.006613541813511694,0.03712239952798158,-0.1001472771167755,-0.07948414236307144,0.2040743976831436,0.006971377413719893,-0.02431803569197655,0.004782378673553467,XArbitraryZVertical,0.0185177429699792,0.003535386043435995,0.01242139636644696,0.9997450846509502,0.006608937401324511,-0.03711387515068054,-0.9992892146110535,0,0,0,-1,-1,,,,,,,,,,,,,,,,,,1,0.71
2021-12-13 16:14:14.208 -0500,,,,,,,,,,16433.30153941667,1.52587890625e-05,-0.0504913330078125,-1.00787353515625,16433.29657041667,0.02734919411553097,0.005569988862945043,0.03587770320956823,-0.1643145382404327,-0.115437887609005,0.3312664330005646,0.01137087214738131,-0.01799353584647179,0.006482124328613281,XArbitraryZVertical,0.01789806723804145,0.003029567351928414,0.01372187048681125,0.9997410208241169,0.00556637579575181,-0.03587000817060471,-0.9993409514427185,0,0,0,-1,-1,,,,,,,,,,,,,,,,,,1,0.71
2021-12-13 16:14:14.217 -0500,,,,,,,,,,16433.31147841667,0.0151519775390625,-0.0349884033203125,-1.042190551757812,16433.30650841667,0.03133853900257292,0.004080422318671418,0.0342724148642773,-0.1519838273525238,-0.1568223088979721,0.4607771635055542,0.0001791790127754211,-0.02013190090656281,-0.003937244415283203,XArbitraryZVertical,0.01710126803558041,0.002308147120564241,0.01570125165415476,0.9997277453982336,0.004078014753758907,-0.03426570445299149,-0.9994044303894043,0,0,0,-1,-1,,,,,,,,,,,,,,,,,,1,0.71
2021-12-13 16:14:14.227 -0500,,,,,,,,,,16433.32141641667,0.0062713623046875,-0.0327301025390625,-1.039108276367188,16433.31644741667,0.03657458898013622,0.002429303983052633,0.03321027996548451,-0.08575448393821716,-0.1284095793962479,0.6088989973068237,0.004728402011096478,-0.01225177943706512,-0.02603650093078613,XArbitraryZVertical,0.01657938000640563,0.001517913165195863,0.01830390604863549,0.9996938389978011,0.002427962142974138,-0.03320417553186417,-0.9994456171989441,0,0,0,-1,-1,,,,,,,,,,,,,,,,,,1,0.71
2021-12-13 16:14:14.237 -0500,,,,,,,,,,16433.33135541667,-0.007110595703125,-0.062744140625,-1.026123046875,16433.32638641667,0.04402288984496632,0.0004863589729316487,0.03218002152483312,-0.1441799700260162,-0.2240006774663925,0.8958889245986938,0.01776339672505856,0.004662849009037018,-0.04676723480224609,XArbitraryZVertical,0.01608006730470033,0.0005972096334698875,0.02201073007613867,0.9996282086167212,0.0004861071356572211,-0.03217446804046631,-0.9994821548461914,0,0,0,-1,-1,,,,,,,,,,,,,,,,,,1,0.71
2021-12-13 16:14:14.247 -0500,,,,,,,,,,16433.34129441667,0.024505615234375,-0.0838775634765625,-1.041763305664062,16433.33632441667,0.05442680223917344,-0.002765891539926518,0.03032749785299728,-0.207815945148468,-0.3729059994220734,1.21340537071228,-0.005459879525005817,-0.02064152993261814,-0.03206461668014526,XArbitraryZVertical,0.01519516422931925,-0.0009696842950353243,0.02718592524380971,0.9995144556904049,-0.002764616161584854,-0.0303228497505188,-0.9995363354682922,0,0,0,-1,-1,,,,,,,,,,,,,,,,,,1,0.71
2021-12-13 16:14:14.257 -0500,,,,,,,,,,16433.35123241667,0.008026123046875,-0.0738067626953125,-1.014495849609375,16433.34626341667,0.06797145365828533,-0.007315408029524192,0.02823556734452417,-0.1917165964841843,-0.4476472437381744,1.487625122070312,0.01631510257720947,-0.03931886702775955,-0.03318595886230469,XArbitraryZVertical,0.01423334129612048,-0.003175527759552343,0.03392396433745427,0.9993180130737637,-0.007312426809221506,-0.02823181636631489,-0.9995746612548828,0,0,0,-1,-1,,,,,,,,,,,,,,,,,,1,0.71
2021-12-13 16:14:14.267 -0500,,,,,,,,,,16433.36117141667,0.0074310302734375,-0.0816650390625,-1.021011352539062,16433.35620241667,0.0837860708346011,-0.01260220291074723,0.02658912435957367,-0.09230665862560272,-0.5388094186782837,1.726348519325256,0.03159459680318832,-0.06107577681541443,-0.03134715557098389,XArbitraryZVertical,0.01354611322995767,-0.005738215898591322,0.04179255770398142,0.9990179635167037,-0.01259741466492414,-0.02658599056303501,-0.9995671510696411,0,0,0,-1,-1,,,,,,,,,,,,,,,,,,1,0.71
2021-12-13 16:14:14.277 -0500,,,,,,,,,,16433.37111041667,0.03338623046875,-0.05108642578125,-1.030853271484375,16433.36614041667,0.1029948126874428,-0.01857764887894463,0.02606925531262121,0.05037938430905342,-0.5237058997154236,2.120873212814331,0.02395661361515522,-0.04192688316106796,-0.01151382923126221,XArbitraryZVertical,0.01349450907455284,-0.008604683965674991,0.05134714410439618,0.9985526096261543,-0.01857026852667332,-0.02606630325317383,-0.9994876980781555,0,0,0,-1,-1,,,,,,,,,,,,,,,,,,1,0.71
2021-12-13 16:14:14.287 -0500,,,,,,,,,,16433.38104841667,0.01324462890625,0.0280609130859375,-1.057662963867188,16433.37607941667,0.1251874510820311,-0.02375202870905154,0.02690855726178167,0.2048011869192123,-0.4010628163814545,2.308587551116943,0.04183810949325562,-0.05535484477877617,-0.02327275276184082,XArbitraryZVertical,0.01416937212426028,-0.0110098865792314,0.06238332487722924,0.9978909620036479,-0.02374119684100151,-0.02690530940890312,-0.9993560314178467,0,0,0,-1,-1,,,,,,,,,,,,,,,,,,1,0.71
2021-12-13 16:14:14.297 -0500,,,,,,,,,,16433.39098741667,0.001800537109375,0.003631591796875,-1.033172607421875,16433.38601841667,0.1495096348518881,-0.02796929753173471,0.02828646239229334,0.1579660326242447,-0.322242259979248,2.625294208526611,0.05535924062132835,0.02753498964011669,-0.05003106594085693,XArbitraryZVertical,0.0151461907684939,-0.01288759131195279,0.07447322001974788,0.9970246558603436,-0.02795446291565895,-0.02828269079327583,-0.9992089867591858,0,0,0,-1,-1,,,,,,,,,,,,,,,,,,1,0.71
2021-12-13 16:14:14.307 -0500,,,,,,,,,,16433.40092641667,-0.0138702392578125,-0.00439453125,-0.9910430908203125,16433.39595641667,0.1788472756643322,-0.03219722871068981,0.0279131806962401,-0.07736606150865555,-0.3425938785076141,3.25063943862915,0.03767228126525879,0.057496327906847,-0.05075806379318237,XArbitraryZVertical,0.01533604893695737,-0.01478585155419831,0.08906046817179855,0.995798394604679,-0.03217912465333939,-0.02790955640375614,-0.9990923404693604,0,0,0,-1,-1,,,,,,,,,,,,,,,,,,1,0.71
2021-12-13 16:14:14.318 -0500,,,,,,,,,,16433.41086441667,-0.020263671875,0.0146636962890625,-1.020004272460938,16433.40589541667,0.2119132634874391,-0.03586590057276163,0.02596861330129808,-0.01077052019536495,-0.2230281978845596,3.369557619094849,0.03207719326019287,0.002894384786486626,-0.01172220706939697,XArbitraryZVertical,0.01480534918316212,-0.01645697886661411,0.1055010386816812,0.9941728163946716,-0.03584612160921097,-0.02596569433808327,-0.9990199208259583,0,0,0,-1,-1,,,,,,,,,,,,,,,,,,1,0.71
2021-12-13 16:14:14.327 -0500,,,,,,,,,,16433.42080341667,-0.0057220458984375,-0.0170135498046875,-0.9669036865234375,16433.41583341667,0.2465177056228606,-0.03793866152195422,0.02544574001398362,0.1044018715620041,0.02131683565676212,3.642315149307251,0.01571573317050934,0.06033982336521149,-0.005422353744506836,XArbitraryZVertical,0.01495562512574909,-0.01725884712849676,0.1226754178167525,0.9921840932646585,-0.03791728243231773,-0.02544299326837063,-0.9989569187164307,0,0,0,-1,-1,,,,,,,,,,,,,,,,,,1,0.71
2021-12-13 16:14:14.337 -0500,,,,,,,,,,16433.43074241667,0.0065765380859375,0.0393829345703125,-1.017135620117188,16433.42577241667,0.2845882368025601,-0.0371077546740621,0.02448601020112886,-0.01386271789669991,0.3285656869411469,4.0733323097229,0.03051156923174858,-0.002020973712205887,0.0024300217628479,XArbitraryZVertical,0.01474773991009687,-0.01662803632990669,0.1415545499159106,0.9896808604307787,-0.03708811849355698,-0.02448356337845325,-0.9990120530128479,0,0,0,-1,-1,,,,,,,,,,,,,,,,,,1,0.71
2021-12-13 16:14:14.347 -0500,,,,,,,,,,16433.44068041667,-0.02435302734375,0.041961669921875,-1.032089233398438,16433.43571141667,0.3263300476640431,-0.03472383097751081,0.02316000424621021,0.04305223003029823,0.3188624680042267,4.283003807067871,0.04363392293453217,0.03699763491749763,0.01856887340545654,XArbitraryZVertical,0.01424419528148972,-0.01524855463377742,0.1622082754811859,0.9865358062787919,-0.03470754250884056,-0.02315793372690678,-0.9991291761398315,0,0,0,-1,-1,,,,,,,,,,,,,,,,,,1,0.71
2021-12-13 16:14:14.359 -0500,,,,,,,,,,16433.45061941667,-0.0186004638671875,-0.00225830078125,-1.0009765625,16433.44565041667,0.369579887171479,-0.03238910168533733,0.02210214940312438,0.02624502032995224,0.3276126980781555,4.399731636047363,0.0149652361869812,0.07629954814910889,-0.04660600423812866,XArbitraryZVertical,0.01383655883544074,-0.01388695101259314,0.183528834016863,0.9828188541509018,-0.0323755294084549,-0.02210034988820553,-0.9992313981056213,0,0,0,-1,-1,,,,,,,,,,,,,,,,,,1,0.71
2021-12-13 16:14:14.367 -0500,,,,,,,,,,16433.46055741667,-0.0332489013671875,-0.07244873046875,-0.9574737548828125,16433.45558841667,0.4142849232520497,-0.03017843033960408,0.02106181172525567,0.03315672278404236,0.3143549561500549,4.627686500549316,0.01243643090128899,0.03749395161867142,-0.01115977764129639,XArbitraryZVertical,0.01340744218130334,-0.01259972336296121,0.2054739831401122,0.9784895928338452,-0.03016715683043003,-0.02106025442481041,-0.9993229508399963,0,0,0,-1,-1,,,,,,,,,,,,,,,,,,1,0.71
2021-12-13 16:14:14.377 -0500,,,,,,,,,,16433.47049641667,-0.0929412841796875,-0.0560455322265625,-0.9332122802734375,16433.46552741667,0.46129788268072,-0.02778740204391887,0.01844158066601581,-0.3149083256721497,0.3535206317901611,4.799578189849854,0.008171539753675461,-0.02501651458442211,0.01569461822509766,XArbitraryZVertical,0.01215160641140016,-0.0114170359250153,0.2284528323279833,0.9734121961009434,-0.02777910232543945,-0.01844053529202938,-0.9994440078735352,0,0,0,-1,-1,,,,,,,,,,,,,,,,,,1,0.71
2021-12-13 16:14:14.386 -0500,,,,,,,,,,16433.48043541667,-0.092620849609375,-0.04205322265625,-1.01434326171875,16433.47546541667,0.5071456043020073,-0.02585043756279181,0.01383086909985458,-0.3162598609924316,0.1943749338388443,4.386156558990479,-0.03403042256832123,-0.06333328783512115,0.07699340581893921,XArbitraryZVertical,0.009935988360369638,-0.01077657720374501,0.2507506347641072,0.9679407119528832,-0.02584508620202541,-0.01383042801171541,-0.9995703101158142,0,0,0,-1,-1,,,,,,,,,,,,,,,,,,1,0.71
2021-12-13 16:14:14.396 -0500,,,,,,,,,,16433.49037441667,-0.0790252685546875,-0.0535430908203125,-1.053131103515625,16433.48540441667,0.5472227372627156,-0.02527128966075553,0.01138121798028145,0.04946964979171753,0.02221262268722057,3.704872131347656,-0.07182472944259644,-0.03698940575122833,0.03138476610183716,XArbitraryZVertical,0.008892594491628839,-0.01062756599758544,0.2701150676222643,0.9627282402583865,-0.02526696398854256,-0.01138097234070301,-0.9996159672737122,0,0,0,-1,-1,,,,,,,,,,,,,,,,,,1,0.71
2021-12-13 16:14:14.408 -0500,,,,,,,,,,16433.50031241667,-0.0604400634765625,-0.0802459716796875,-0.989227294921875,16433.49534341667,0.5827371288610441,-0.02563064950874161,0.01240838145606805,0.3119087219238281,0.008442215621471405,3.453783988952637,-0.06635412573814392,-0.0148288905620575,-0.05390268564224243,XArbitraryZVertical,0.009623370540376187,-0.01049252873342692,0.2871581126964171,0.957777343328696,-0.02562586963176727,-0.0124080628156662,-0.9995945692062378,0,0,0,-1,-1,,,,,,,,,,,,,,,,,,1,0.71
2021-12-13 16:14:14.416 -0500,,,,,,,,,,16433.51025141667,-0.02777099609375,-0.0055999755859375,-1.058563232421875,16433.50528141667,0.6154078973774689,-0.02590785273110424,0.01585786866739735,0.5578937530517578,0.01558747701346874,3.091858625411987,-0.0371781550347805,-0.07960179448127747,-0.01607102155685425,XArbitraryZVertical,0.01147894967513789,-0.009943547023430381,0.3027384169567716,0.9529526668179393,-0.02590169757604599,-0.01585720479488373,-0.9995387196540833,0,0,0,-1,-1,,,,,,,,,,,,,,,,,,1,0.71
2021-12-13 16:14:14.427 -0500,,,,,,,,,,16433.52018941667,0.048065185546875,0.0187225341796875,-1.087554931640625,16433.51522041667,0.6454113371636512,-0.02620700812287944,0.02142809463325161,0.7102640867233276,0.06033816933631897,2.973876714706421,-0.02816909179091454,-0.01551508903503418,-0.01119297742843628,XArbitraryZVertical,0.0143151362149121,-0.009028614219813587,0.3169551607436198,0.9482894949004381,-0.02619799226522446,-0.02142645418643951,-0.9994271397590637,0,0,0,-1,-1,,,,,,,,,,,,,,,,,,1,0.71
2021-12-13 16:14:14.436 -0500,,,,,,,,,,16433.53012841667,0.045074462890625,0.0596923828125,-1.086761474609375,16433.52515941667,0.6762866140357254,-0.02591982915823943,0.0283514891928373,0.8325463533401489,0.1234017610549927,3.189805746078491,0.03661816567182541,0.046002097427845,-0.08678191900253296,XArbitraryZVertical,0.01767015177032927,-0.007522398887880625,0.3315016184554598,0.9432591865500086,-0.0259065106511116,-0.02834769152104855,-0.9992623329162598,0,0,0,-1,-1,,,,,,,,,,,,,,,,,,1,0.71
2021-12-13 16:14:14.446 -0500,,,,,,,,,,16433.54006741667,0.0482177734375,0.064971923828125,-1.088790893554688,16433.53509741667,0.7078207774945749,-0.02583137471902973,0.03599184667773579,0.8805549144744873,0.09411737322807312,3.089761972427368,0.08431395143270493,0.06190874800086021,-0.08675068616867065,XArbitraryZVertical,0.02135362159105283,-0.005876971870975872,0.3462654582426626,0.9378751283093619,-0.02581177465617657,-0.03598407655954361,-0.9990189671516418,0,0,0,-1,-1,,,,,,,,,,,,,,,,,,1,0.71
2021-12-13 16:14:14.456 -0500,,,,,,,,,,16433.55000541667,-0.0149078369140625,0.02984619140625,-1.047317504882812,16433.54503641667,0.7396023136755507,-0.02706187043142894,0.04376272259285113,0.7980024814605713,-0.1161415874958038,3.299776554107666,0.07056596875190735,0.1250475645065308,-0.08683347702026367,XArbitraryZVertical,0.025287834345717,-0.004705602777920623,0.361034397876324,0.932197738482362,-0.02703266032040119,-0.04374875500798225,-0.9986767768859863,0,0,0,-1,-1,,,,,,,,,,,,,,,,,,1,0.71
2021-12-13 16:14:14.466 -0500,,,,,,,,,,16433.55994441667,-0.1164398193359375,0.0362548828125,-1.045089721679688,16433.55497541667,0.7736465173306439,-0.03241270795884749,0.04864566687782282,0.3042148351669312,-0.8045822978019714,3.496546030044556,0.06323720514774323,0.09025245159864426,-0.08221292495727539,XArbitraryZVertical,0.02863223834551621,-0.005830166183952517,0.3767222028336478,0.9258652562368911,-0.03236869722604752,-0.04862648248672485,-0.9982923865318298,0,0,0,-1,-1,,,,,,,,,,,,,,,,,,1,0.71
2021-12-13 16:14:14.476 -0500,,,,,,,,,,16433.56988341667,-0.0355682373046875,-0.0693817138671875,-0.964324951171875,16433.56491341667,0.8086057056270887,-0.04300442419776757,0.04949121879146445,0.2521641552448273,-0.9112398624420166,3.406374931335449,-0.02963229268789291,0.08014117181301117,-0.0299188494682312,XArbitraryZVertical,0.03119821847317336,-0.01002992710456267,0.3926775010619977,0.919092077824095,-0.04293853044509888,-0.04947101697325706,-0.9978521466255188,0,0,0,-1,-1,,,,,,,,,,,,,,,,,,1,0.71
2021-12-13 16:14:14.486 -0500,,,,,,,,,,16433.57982141667,-0.0593109130859375,-0.0799102783203125,-0.9899444580078125,16433.57485241667,0.8417867166840263,-0.05481662339092555,0.05169501576148128,0.4566286206245422,-1.142296075820923,3.316393613815308,-0.01046958565711975,0.04411888867616653,0.03222876787185669,XArbitraryZVertical,0.0347734003344267,-0.01444921489233563,0.4076396833334795,0.9123660650409966,-0.05471598356962204,-0.05167199298739433,-0.9971640706062317,0,0,0,-1,-1,,,,,,,,,,,,,,,,,,1,0.71
2021-12-13 16:14:14.496 -0500,,,,,,,,,,16433.58976041667,-0.0602264404296875,-0.1215667724609375,-0.95263671875,16433.58479141667,0.8754963957905167,-0.06822793160051842,0.05374519479371259,0.3955972194671631,-1.160898804664612,3.368228197097778,0.01541846990585327,-0.03263017535209656,-0.003812968730926514,XArbitraryZVertical,0.03877457840966325,-0.01949683733936752,0.4226714661889401,0.9052430846961496,-0.06807657331228256,-0.05371932312846184,-0.996232807636261,0,0,0,-1,-1,,,,,,,,,,,,,,,,,,1,0.71
2021-12-13 16:14:14.508 -0500,,,,,,,,,,16433.59969941667,-0.073394775390625,-0.173828125,-0.9821929931640625,16433.59472941667,0.9053797046829226,-0.07899648509775825,0.05786208677908281,1.013835430145264,-0.575273334980011,2.464457273483276,0.02171438932418823,-0.02740579843521118,0.0311780571937561,XArbitraryZVertical,0.043257272220381,-0.02285324077389141,0.4358347810339072,0.8986960494976999,-0.07878228276968002,-0.05782980471849442,-0.9952130913734436,0,0,0,-1,-1,,,,,,,,,,,,,,,,,,1,0.71
2021-12-13 16:14:14.516 -0500,,,,,,,,,,16433.60963741667,-0.0413665771484375,-0.07275390625,-0.943450927734375,16433.60466841667,0.9295969060356128,-0.08586692687648369,0.06694511007921755,1.027729153633118,-0.5817843079566956,2.394087791442871,0.001722283661365509,-0.1063379123806953,0.01981031894683838,XArbitraryZVertical,0.04911628326929509,-0.0233582524247763,0.4462947397462434,0.8932317527825544,-0.0855693444609642,-0.06689511984586716,-0.9940839409828186,0,0,0,-1,-1,,,,,,,,,,,,,,,,,,1,0.71
2021-12-13 16:14:14.526 -0500,,,,,,,,,,16433.61957641667,-0.1233062744140625,-0.0768890380859375,-0.9873809814453125,16433.61460741667,0.9557227582556024,-0.09470411085321011,0.07200112948695564,0.4658077359199524,-0.8202764987945557,2.730555295944214,0.05971064418554306,-0.03555923700332642,0.04901564121246338,XArbitraryZVertical,0.05367915014902586,-0.02547090034870782,0.4575552156704231,0.8871938268693123,-0.09431760013103485,-0.07193893194198608,-0.9929395914077759,0,0,0,-1,-1,,,,,,,,,,,,,,,,,,1,0.71
2021-12-13 16:14:14.535 -0500,,,,,,,,,,16433.62951541667,-0.0186920166015625,-0.0493927001953125,-1.046295166015625,16433.62454541667,0.9810914896943324,-0.1026225761320219,0.07500709861734918,0.6935173869132996,-0.4361910820007324,2.274178028106689,-0.01294256001710892,0.00123683363199234,-0.008805632591247559,XArbitraryZVertical,0.05717522343915175,-0.02756797145524462,0.4684601910026666,0.8812014559671824,-0.1021545082330704,-0.07493678480386734,-0.9919419884681702,0,0,0,-1,-1,,,,,,,,,,,,,,,,,,1,0.71
2021-12-13 16:14:14.546 -0500,,,,,,,,,,16433.63945341667,0.0175933837890625,0.0270233154296875,-1.050491333007812,16433.63448441667,1.00564003745425,-0.10888705799606,0.07949301569749619,0.6200410127639771,-0.506591260433197,2.658967018127441,0.03409481048583984,0.006838515400886536,-0.006314933300018311,XArbitraryZVertical,0.06096878596420741,-0.02852330949537592,0.4789096954231491,0.8752798513250371,-0.1083288416266441,-0.07940932363271713,-0.9909384846687317,0,0,0,-1,-1,,,,,,,,,,,,,,,,,,1,0.71
2021-12-13 16:14:14.556 -0500,,,,,,,,,,16433.64939241667,-0.0178070068359375,0.016448974609375,-1.002182006835938,16433.64442341667,1.035520119700982,-0.1186461408227466,0.07959910381127144,0.1427508592605591,-1.014470934867859,3.220000028610229,0.1330078095197678,0.06585845351219177,-0.08739900588989258,XArbitraryZVertical,0.06383368091808261,-0.0318182194947001,0.4916233025351516,0.8678821921046816,-0.1179931834340096,-0.07951507717370987,-0.9898257255554199,0,0,0,-1,-1,,,,,,,,,,,,,,,,,,1,0.71
2021-12-13 16:14:14.565 -0500,,,,,,,,,,16433.65933141667,-0.07257080078125,-0.0911712646484375,-0.9747467041015625,16433.65436141667,1.067680137801973,-0.1315568182079876,0.07690665717797197,0.1985222548246384,-0.9410797953605652,3.210367679595947,0.1378394812345505,0.1170530393719673,-0.03066015243530273,XArbitraryZVertical,0.06644519827087489,-0.0370237333277176,0.5051917187677549,0.8596485303983559,-0.1307899206876755,-0.07683086395263672,-0.98842853307724,0,0,0,-1,-1,,,,,,,,,,,,,,,,,,1,0.71
2021-12-13 16:14:14.575 -0500,,,,,,,,,,16433.66926941667,-0.1093292236328125,-0.1277923583984375,-0.9108734130859375,16433.66430041667,1.098557015892659,-0.140243649425055,0.07555831796354766,0.3334081470966339,-0.3103875815868378,2.966371774673462,0.09113724529743195,0.0405133068561554,-0.002190887928009033,XArbitraryZVertical,0.06868761579174343,-0.04004507195926027,0.5181603239097382,0.8515798485785726,-0.1393855512142181,-0.0754864439368248,-0.9873567819595337,0,0,0,-1,-1,,,,,,,,,,,,,,,,,,1,0.71
2021-12-13 16:14:14.585 -0500,,,,,,,,,,16433.67920841667,-0.0905609130859375,-0.14434814453125,-0.90045166015625,16433.67423941667,1.128508728522937,-0.1421219811248027,0.07336738393203002,0.07333077490329742,0.3750360608100891,3.043951511383057,0.04739087820053101,-0.04641887545585632,0.03882932662963867,XArbitraryZVertical,0.06885700120558627,-0.04039074691226963,0.5308770151479058,0.8436805113140866,-0.1412629634141922,-0.07330158352851868,-0.9872546195983887,0,0,0,-1,-1,,,,,,,,,,,,,,,,,,1,0.71
2021-12-13 16:14:14.595 -0500,,,,,,,,,,16433.68914741667,-0.105377197265625,-0.1429595947265625,-0.9915771484375,16433.68417741667,1.158083819552213,-0.1373235080417282,0.06947520633828957,0.03473171591758728,0.9857187271118164,2.901734113693237,0.037303626537323,-0.06909996271133423,0.1044681668281555,XArbitraryZVertical,0.06652167117611538,-0.03842864310797361,0.543609149349818,0.8358152411321738,-0.1365620642900467,-0.06941933184862137,-0.9881961941719055,0,0,0,-1,-1,,,,,,,,,,,,,,,,,,1,0.71
2021-12-13 16:14:14.605 -0500,,,,,,,,,,16433.69908541667,-0.1080322265625,-0.087982177734375,-0.9969940185546875,16433.69411641667,1.18537810052437,-0.1279664361476428,0.06669196970945493,0.09989074617624283,1.188677668571472,2.632748603820801,0.03355324268341064,-0.08222220093011856,0.04383307695388794,XArbitraryZVertical,0.06329321646407168,-0.03441936448375005,0.555372413907144,0.8284748245746286,-0.1273337602615356,-0.06664254516363144,-0.9896185398101807,0,0,0,-1,-1,,,,,,,,,,,,,,,,,,1,0.71
2021-12-13 16:14:14.615 -0500,,,,,,,,,,16433.70902441667,-0.1631927490234375,-0.0121307373046875,-1.044754028320312,16433.70405541667,1.210813122036193,-0.1184247977999249,0.06386003295483667,-0.02110411785542965,0.9715691208839417,2.403852701187134,0.005068592727184296,-0.04485645890235901,-0.01575720310211182,XArbitraryZVertical,0.0598653665787162,-0.03049904588216301,0.5662560389686966,0.8214864504470268,-0.1179073601961136,-0.06381663680076599,-0.9909718632698059,0,0,0,-1,-1,,,,,,,,,,,,,,,,,,1,0.71
2021-12-13 16:14:14.625 -0500,,,,,,,,,,16433.71896341667,-0.22247314453125,-0.0238189697265625,-1.037399291992188,16433.71399341667,1.231208540163484,-0.1133833260925838,0.06169018080431964,0.06500786542892456,0.2892939150333405,1.748310804367065,-0.001088373363018036,-0.0007879063487052917,-0.003855466842651367,XArbitraryZVertical,0.05784186779505631,-0.02845755418673325,0.5748233802008764,0.8157343287376041,-0.1129253208637238,-0.06165105849504471,-0.9916889667510986,0,0,0,-1,-1,,,,,,,,,,,,,,,,,,1,0.71
2021-12-13 16:14:14.635 -0500,,,,,,,,,,16433.72890141667,-0.1766510009765625,-0.093536376953125,-0.9697265625,16433.72393241667,1.246834698932493,-0.1132289376593619,0.06147022116724903,0.2305403798818588,0.01342871785163879,1.401153683662415,-0.1038858294487,0.07025109976530075,-0.08124768733978271,XArbitraryZVertical,0.05792858116806417,-0.0280063762474214,0.5811906673928902,0.8112196416345078,-0.1127737462520599,-0.06143151596188545,-0.9917198419570923,0,0,0,-1,-1,,,,,,,,,,,,,,,,,,1,0.71
2021-12-13 16:14:14.645 -0500,,,,,,,,,,16433.73884041667,-0.1567535400390625,-0.0415191650390625,-0.9914398193359375,16433.73387141667,1.260295888256265,-0.1143149583998436,0.06224927558815547,0.1996849924325943,-0.06621471047401428,1.274444460868835,-0.08740297704935074,-0.01731973141431808,-0.00224071741104126,XArbitraryZVertical,0.05874795068011428,-0.02782460858648088,0.5865807455133007,0.8072778642077912,-0.1138452142477036,-0.06220908090472221,-0.9915489554405212,0,0,0,-1,-1,,,,,,,,,,,,,,,,,,1,0.71
2021-12-13 16:14:14.655 -0500,,,,,,,,,,16433.74877941667,-0.14166259765625,-0.0139923095703125,-1.000167846679688,16433.74380941667,1.272111508160864,-0.1157604783546227,0.06270499777546586,0.154406726360321,-0.0557948611676693,1.063311696052551,-0.05064898729324341,-0.005283467471599579,0.02167427539825439,XArbitraryZVertical,0.05952134963732799,-0.02792260494179125,0.5912821741763981,0.8037804228933927,-0.115275114774704,-0.06266391277313232,-0.9913550615310669,0,0,0,-1,-1,,,,,,,,,,,,,,,,,,1,0.71
2021-12-13 16:14:14.665 -0500,,,,,,,,,,16433.75871741667,-0.1748199462890625,-0.0303192138671875,-0.9677886962890625,16433.75374841667,1.281743549175835,-0.116773281745212,0.0628183841025072,0.08509262651205063,-0.03062053397297859,0.860193133354187,-0.02953473478555679,0.0369134396314621,-0.01166838407516479,XArbitraryZVertical,0.06000179735175992,-0.02800730451422557,0.5951123369673811,0.8009098581834437,-0.116278275847435,-0.062777079641819,-0.9912307262420654,0,0,0,-1,-1,,,,,,,,,,,,,,,,,,1,0.71
2021-12-13 16:14:14.695 -0500,,,,,,,,,,16433.76865641667,-0.18011474609375,-0.0675201416015625,-0.9599456787109375,16433.76368741667,1.28915757093621,-0.1174823830208033,0.06260183052992098,0.05532807111740112,-0.02278637886047363,0.6406362652778625,-0.03856539726257324,0.04373160004615784,0.004467189311981201,XArbitraryZVertical,0.06023100830083891,-0.02813293877208002,0.5980629806016524,0.7986873403724734,-0.116982713341713,-0.06256094574928284,-0.9911615252494812,0,0,0,-1,-1,,,,,,,,,,,,,,,,,,1,0.71
2021-12-13 16:14:14.698 -0500,,,,,,,,,,16433.77859541667,-0.1670989990234375,-0.1021728515625,-0.94244384765625,16433.77362541667,1.295427174347084,-0.1178903044373232,0.06274798388297409,0.1203206479549408,0.02322638779878616,0.623640775680542,-0.06799310445785522,0.02059255540370941,0.02996879816055298,XArbitraryZVertical,0.06049945728974976,-0.02806240480941031,0.6005466364533699,0.7968036869559123,-0.1173859462141991,-0.06270681321620941,-0.9911046624183655,0,0,0,-1,-1,,,,,,,,,,,,,,,,,,1,0.71
2021-12-13 16:14:14.699 -0500,,,,,,,,,,16433.78853341667,-0.1447296142578125,-0.084625244140625,-0.94140625,16433.78356441667,1.3020248430345,-0.1178926046431737,0.0635446842908252,0.1869470924139023,0.06758186221122742,0.6704146862030029,-0.05290579050779343,-0.03049221634864807,0.03728854656219482,XArbitraryZVertical,0.06090811250396898,-0.02762214240920572,0.6031455496270643,0.7948224684350416,-0.1173823103308678,-0.06350193172693253,-0.9910544157028198,0,0,0,-1,-1,,,,,,,,,,,,,,,,,,1,0.71
2021-12-13 16:14:14.704 -0500,,,,,,,,,,16433.79847241667,-0.1332855224609375,-0.037261962890625,-0.98065185546875,16433.79350341667,1.308968384435426,-0.1177258698413645,0.06504593333121038,0.2830594778060913,0.0377962738275528,0.6610456705093384,-0.04108896106481552,-0.03404472023248672,0.0572776198387146,XArbitraryZVertical,0.06154645322761602,-0.02688738510765842,0.6058567714341803,0.7927336072790457,-0.1172057390213013,-0.06500007212162018,-0.9909781813621521,0,0,0,-1,-1,,,,,,,,,,,,,,,,,,1,0.71
2021-12-13 16:14:14.714 -0500,,,,,,,,,,16433.80841141667,-0.1056671142578125,-0.0097808837890625,-0.97296142578125,16433.80344141667,1.315674209393671,-0.1182421830165659,0.06726828734065907,0.2891506850719452,-0.05278985202312469,0.631740927696228,-0.02043779194355011,0.005785688757896423,0.02684342861175537,XArbitraryZVertical,0.06266928870804241,-0.02620545886285603,0.6084210276029953,0.7907020610003064,-0.1177000477910042,-0.06721756607294083,-0.9907716512680054,0,0,0,-1,-1,,,,,,,,,,,,,,,,,,1,0.71
2021-12-13 16:14:14.724 -0500,,,,,,,,,,16433.81834941667,-0.1236419677734375,-0.029937744140625,-0.942169189453125,16433.81338041667,1.322073747849448,-0.1192327550791498,0.06891339640225649,0.1940409541130066,-0.05127930641174316,0.5914286375045776,0.0002293661236763,0.05181480199098587,0.009464383125305176,XArbitraryZVertical,0.06370214773551179,-0.02589032606891545,0.6108610069128902,0.7887461304661479,-0.1186681017279625,-0.06885886192321777,-0.9905434250831604,0,0,0,-1,-1,,,,,,,,,,,,,,,,,,1,0.71
2021-12-13 16:14:14.734 -0500,,,,,,,,,,16433.82828841667,-0.1330108642578125,-0.0368804931640625,-0.9489898681640625,16433.82331941667,1.327422622613762,-0.1200418908137729,0.07023818169789851,0.2049290239810944,-0.0324283204972744,0.4312725365161896,0.01144152879714966,0.05191567540168762,0.03593367338180542,XArbitraryZVertical,0.06453880936097581,-0.02563013384574564,0.6128969708289038,0.7871055225551302,-0.1194585189223289,-0.07018044590950012,-0.9903556704521179,0,0,0,-1,-1,,,,,,,,,,,,,,,,,,1,0.71
2021-12-13 16:14:14.744 -0500,,,,,,,,,,16433.83822741667,-0.1287384033203125,-0.0439453125,-0.9395599365234375,16433.83325741667,1.331683911463805,-0.1207931943512374,0.07183880569858885,0.2076808661222458,-0.07630816102027893,0.416781485080719,-0.01382911205291748,0.03341643512248993,0.04476410150527954,XArbitraryZVertical,0.0654508914110687,-0.02529324493214929,0.6144928237008473,0.7857957569589546,-0.1201888546347618,-0.07177703082561493,-0.9901528358459473,0,0,0,-1,-1,,,,,,,,,,,,,,,,,,1,0.71
2021-12-13 16:14:14.754 -0500,,,,,,,,,,16433.84816541667,-0.126983642578125,-0.04901123046875,-0.949920654296875,16433.84319641667,1.336489837182705,-0.1219735733814687,0.07325956208269792,0.200099378824234,-0.07696476578712463,0.4941332638263702,-0.005974359810352325,0.03535225242376328,0.04396998882293701,XArbitraryZVertical,0.06643046003732071,-0.02515850407777132,0.6162906224973912,0.7843085058673898,-0.1213449984788895,-0.07319404929876328,-0.9899080991744995,0,0,0,-1,-1,,,,,,,,,,,,,,,,,,1,0.71
2021-12-13 16:14:14.764 -0500,,,,,,,,,,16433.85810441667,-0.1332244873046875,-0.0336151123046875,-0.9464111328125,16433.85313541667,1.341371368056135,-0.1229066148353806,0.07475135174609528,0.2242984622716904,-0.03622318804264069,0.4222462773323059,-0.005491554737091064,0.02370214462280273,0.04608148336410522,XArbitraryZVertical,0.06736184360835963,-0.02489775065654962,0.6181190354617324,0.7827970353342484,-0.1222550496459007,-0.07468175888061523,-0.9896849393844604,0,0,0,-1,-1,,,,,,,,,,,,,,,,,,1,0.71
2021-12-13 16:14:14.774 -0500,,,,,,,,,,16433.86804341667,-0.131988525390625,-0.017425537109375,-0.9562530517578125,16433.86307341667,1.34488703356286,-0.1232698039072382,0.07704992503901113,0.2996379435062408,0.02799234539270401,0.2011791467666626,-0.006862536072731018,0.03852156549692154,0.0399894118309021,XArbitraryZVertical,0.06841305603859629,-0.02420514142623509,0.6193993936095534,0.7817149004162194,-0.1225930526852608,-0.07697371393442154,-0.9894675016403198,0,0,0,-1,-1,,,,,,,,,,,,,,,,,,1,0.71
2021-12-13 16:14:14.784 -0500,,,,,,,,,,16433.87798141667,-0.1194915771484375,-0.026763916015625,-0.9427642822265625,16433.87301241667,1.346351682087213,-0.1225757294666334,0.08012877254105498,0.328876793384552,0.1480982452630997,0.03171953931450844,-0.01548292487859726,0.05326389521360397,0.03940713405609131,XArbitraryZVertical,0.06941370220743387,-0.02292376363538385,0.6198841116541564,0.7812809593740608,-0.1218767017126083,-0.08004305511713028,-0.989312469959259,0,0,0,-1,-1,,,,,,,,,,,,,,,,,,1,0.71
2021-12-13 16:14:14.794 -0500,,,,,,,,,,16433.88792041667,-0.119964599609375,-0.042877197265625,-0.9369659423828125,16433.88295141667,1.34665302537578,-0.1203922583038031,0.08283518733766755,0.213939294219017,0.2782451510429382,-0.03699587658047676,-0.002517834305763245,0.06101198494434357,0.0345999002456665,XArbitraryZVertical,0.06979325569142752,-0.02121622585177709,0.619979352140325,0.781219699575694,-0.1196898221969604,-0.08274048566818237,-0.9893575310707092,0,0,0,-1,-1,,,,,,,,,,,,,,,,,,1,0.71
2021-12-13 16:14:14.804 -0500,,,,,,,,,,16433.89785941667,-0.1156005859375,-0.0537872314453125,-0.954345703125,16433.89288941667,1.345861557525013,-0.1172627632814776,0.08472256380628643,0.1606875211000443,0.3344144225120544,-0.1750639975070953,-0.004061438143253326,0.05140286684036255,0.05550366640090942,XArbitraryZVertical,0.06954974408671852,-0.01943255639320429,0.6197107874990126,0.7815008959303417,-0.1165745705366135,-0.08462124317884445,-0.9895704388618469,0,0,0,-1,-1,,,,,,,,,,,,,,,,,,1,0.71
2021-12-13 16:14:14.814 -0500,,,,,,,,,,16433.90779741667,-0.108001708984375,-0.05828857421875,-0.9694976806640625,16433.90282841667,1.343750486755487,-0.1135086088084245,0.08641368129124327,0.1331267356872559,0.3823792934417725,-0.2729645967483521,-0.007366374135017395,0.03442629426717758,0.04546052217483521,XArbitraryZVertical,0.06902620843433496,-0.01751116112325203,0.6189549798429574,0.782191417945003,-0.1128423884510994,-0.08630617707967758,-0.9898574948310852,0,0,0,-1,-1,,,,,,,,,,,,,,,,,,1,0.71
2021-12-13 16:14:14.824 -0500,,,,,,,,,,16433.91773641667,-0.125030517578125,-0.0789794921875,-0.9766387939453125,16433.91276741667,1.340464265524195,-0.1090709498978022,0.08789763943628513,0.08611181378364563,0.466814786195755,-0.4302620887756348,-0.0008641406893730164,0.03466865420341492,0.02508640289306641,XArbitraryZVertical,0.0682056309979881,-0.01542555897637438,0.6177687723758351,0.7832444041941763,-0.1084345802664757,-0.08778449892997742,-0.9902200698852539,0,0,0,-1,-1,,,,,,,,,,,,,,,,,,1,0.71
2021-12-13 16:14:14.834 -0500,,,,,,,,,,16433.92767541667,-0.1564788818359375,-0.0973358154296875,-0.9762420654296875,16433.92270541667,1.335145395504329,-0.1037529061583052,0.08891333907643009,0.008187989704310894,0.4691648483276367,-0.6745749115943909,-0.01242759823799133,0.02223740518093109,0.01675558090209961,XArbitraryZVertical,0.06692419086100716,-0.01320523179762082,0.6158281375293891,0.784922004166888,-0.103157751262188,-0.08879623562097549,-0.9906935691833496,0,0,0,-1,-1,,,,,,,,,,,,,,,,,,1,0.71
2021-12-13 16:14:14.844 -0500,,,,,,,,,,16433.9376135,-0.1490325927734375,-0.09063720703125,-1.013656616210938,16433.93264441667,1.326592252949794,-0.09846533596134099,0.09015007149546772,0.09039817005395889,0.4570285677909851,-1.069693684577942,-0.04087159782648087,-0.001005910336971283,0.01705509424209595,XArbitraryZVertical,0.0657329847771566,-0.01102819140238121,0.612599415146429,0.7875782596733357,-0.09790710359811783,-0.09002801030874252,-0.9911150932312012,0,0,0,-1,-1,,,,,,,,,,,,,,,,,,1,0.71
2021-12-13 16:14:14.853 -0500,,,,,,,,,,16433.9475525,-0.1192474365234375,-0.0657501220703125,-1.027313232421875,16433.9425835,1.314043119375562,-0.09275626040166378,0.0928644355426741,0.2100611925125122,0.4569711685180664,-1.481001377105713,-0.06918328255414963,-0.001736141741275787,-0.001447916030883789,XArbitraryZVertical,0.06499828046933598,-0.008351840193683097,0.6077429924579104,0.7914252726281149,-0.09222421050071716,-0.09273102134466171,-0.9914109110832214,0,0,0,-1,-1,,,,,,,,,,,,,,,,,,1,0.71
2021-12-13 16:14:14.863 -0500,,,,,,,,,,16433.9574915,-0.1156158447265625,-0.0555419921875,-1.045379638671875,16433.9525215,1.297488720341211,-0.08650208546079305,0.09697013575501591,0.3127257823944092,0.4940157532691956,-1.90346097946167,-0.0457560271024704,0.01657227426767349,-0.03342843055725098,XArbitraryZVertical,0.0646765819901876,-0.005157904985917968,0.6012421267375004,0.7964284122082677,-0.0859883725643158,-0.0968182384967804,-0.9915806651115417,0,0,0,-1,-1,,,,,,,,,,,,,,,,,,1,0.71
2021-12-13 16:14:14.874 -0500,,,,,,,,,,16433.9674295,-0.153564453125,-0.0822906494140625,-1.052810668945312,16433.9624605,1.276626624404149,-0.07987481014696868,0.1022498601433992,0.3948001265525818,0.4105272889137268,-2.359764099121094,-0.03178714215755463,0.04771997779607773,-0.04240643978118896,XArbitraryZVertical,0.06476688584249311,-0.001598562612859256,0.592950075115465,0.8026286627086743,-0.07937316596508026,-0.1020717844367027,-0.9916054010391235,0,0,0,-1,-1,,,,,,,,,,,,,,,,,,1,0.71
2021-12-13 16:14:14.883 -0500,,,,,,,,,,16433.9773685,-0.1484832763671875,-0.1189117431640625,-1.006011962890625,16433.9723995,1.251181625427311,-0.07370740667138741,0.1084716388705007,0.4359864592552185,0.3144875764846802,-2.809396266937256,-0.06352615356445312,0.04026589542627335,-0.06065469980239868,XArbitraryZVertical,0.06545715284675818,0.001898520993917665,0.58269914688269,0.8100452861924317,-0.07320787757635117,-0.1082590520381927,-0.991423487663269,0,0,0,-1,-1,,,,,,,,,,,,,,,,,,1,0.71
2021-12-13 16:14:14.893 -0500,,,,,,,,,,16433.9873075,-0.160888671875,-0.1663055419921875,-0.97979736328125,16433.9823375,1.22119858183937,-0.06729770965669953,0.1148072328328859,0.4137083292007446,0.2906879186630249,-3.279170513153076,-0.08962889760732651,0.01798231899738312,-0.04703986644744873,XArbitraryZVertical,0.06623606116397468,0.005358108133062157,0.5705087764047045,0.8185986230851758,-0.06680423021316528,-0.1145551949739456,-0.9911681413650513,0,0,0,-1,-1,,,,,,,,,,,,,,,,,,1,0.71
2021-12-13 16:14:14.903 -0500,,,,,,,,,,16433.9972455,-0.1948394775390625,-0.160064697265625,-0.9613800048828125,16433.9922765,1.185960466998851,-0.06147482730308251,0.1205762934179524,0.2660283148288727,0.02138401195406914,-3.838257551193237,-0.08865290880203247,-0.03147958219051361,0.003605306148529053,XArbitraryZVertical,0.06708504227448694,0.008215242570549714,0.5560206173286616,0.8284160239057502,-0.06099005788564682,-0.1202843338251114,-0.9908642172813416,0,0,0,-1,-1,,,,,,,,,,,,,,,,,,1,0.71
2021-12-13 16:14:14.913 -0500,,,,,,,,,,16434.0071845,-0.1900482177734375,-0.16326904296875,-0.978057861328125,16434.0022155,1.144261632804976,-0.05760051903296025,0.1250602746066873,0.1510926932096481,-0.2536506950855255,-4.5371994972229,-0.1207831799983978,-0.0370391458272934,0.02354943752288818,XArbitraryZVertical,0.06807667381945483,0.009656147924436212,0.5386296403432915,0.8397322908196443,-0.05711907148361206,-0.1247345358133316,-0.9905446767807007,0,0,0,-1,-1,,,,,,,,,,,,,,,,,,1,0.71
2021-12-13 16:14:14.923 -0500,,,,,,,,,,16434.0171235,-0.133392333984375,-0.134124755859375,-1.021591186523438,16434.0121535,1.095925725427694,-0.0551840422870163,0.1289698225866562,0.1250064820051193,-0.5169574022293091,-5.113777637481689,-0.1469164341688156,-0.04732124507427216,0.02201515436172485,XArbitraryZVertical,0.06932679533120148,0.01005705545272929,0.5181512944361809,0.8524152615066144,-0.05469796061515808,-0.1286125928163528,-0.9901853203773499,0,0,0,-1,-1,,,,,,,,,,,,,,,,,,1,0.71
2021-12-13 16:14:14.933 -0500,,,,,,,,,,16434.0270615,-0.049957275390625,-0.1060333251953125,-0.9894866943359375,16434.0220925,1.042846357036791,-0.05473516837071408,0.1331100622914102,0.09784836322069168,-0.7497631907463074,-5.470283985137939,-0.1083280146121979,-0.008884221315383911,-0.008011043071746826,XArbitraryZVertical,0.07124673704369842,0.00943992348380064,0.4952477389677332,0.8657738835347688,-0.05422389134764671,-0.1327173262834549,-0.9896695613861084,0,0,0,-1,-1,,,,,,,,,,,,,,,,,,1,0.71
2021-12-13 16:14:14.943 -0500,,,,,,,,,,16434.0370005,-0.0023040771484375,-0.101593017578125,-1.027297973632812,16434.0320305,0.9872805730107133,-0.0550405638391427,0.1367787666872453,0.06654050946235657,-0.8243002891540527,-5.633752346038818,-0.04567499458789825,0.01995863020420074,-0.02870786190032959,XArbitraryZVertical,0.07316285056585177,0.008192709678601933,0.470892142833914,0.8791136020970837,-0.05449897795915604,-0.1363526731729507,-0.9891601800918579,0,0,0,-1,-1,,,,,,,,,,,,,,,,,,1,0.71
2021-12-13 16:14:14.953 -0500,,,,,,,,,,16434.0469395,0.0440673828125,-0.0947113037109375,-1.031967163085938,16434.0419695,0.930373121616125,-0.05604402481831069,0.1412286722344104,0.1679172068834305,-0.9335882663726807,-5.674568176269531,0.0429905466735363,0.0303623229265213,0.003671884536743164,XArbitraryZVertical,0.07557093064816549,0.006659458980531962,0.4455291335835998,0.8920473307214771,-0.05545699596405029,-0.1407596617937088,-0.9884893894195557,0,0,0,-1,-1,,,,,,,,,,,,,,,,,,1,0.71
2021-12-13 16:14:14.963 -0500,,,,,,,,,,16434.0568775,0.07733154296875,-0.1202239990234375,-0.931060791015625,16434.0519085,0.8760243496166983,-0.0568395193395008,0.1444684950189447,-0.1868779063224792,-0.7442521452903748,-5.132175922393799,0.06390751898288727,0.05235271155834198,-0.07443922758102417,XArbitraryZVertical,0.07735273209263421,0.004932181577355829,0.4210060450661646,0.9037400600269679,-0.05621711537241936,-0.143966481089592,-0.9879844784736633,0,0,0,-1,-1,,,,,,,,,,,,,,,,,,1,0.71
2021-12-13 16:14:14.973 -0500,,,,,,,,,,16434.0668165,-0.0203399658203125,0.118194580078125,-0.9102325439453125,16434.0618475,0.8225428331018181,-0.0543500518575999,0.1440410767082041,-0.4075551629066467,-0.1736889183521271,-5.878002166748047,0.1326791644096375,0.02386881411075592,0.01973789930343628,XArbitraryZVertical,0.07676797849110463,0.003915152571391977,0.3967992907160781,0.9146811365634862,-0.05376072600483894,-0.1435434967279434,-0.9881827235221863,0,0,0,-1,-1,,,,,,,,,,,,,,,,,,1,0.71
2021-12-13 16:14:14.983 -0500,,,,,,,,,,16434.0767545,-0.075958251953125,-0.2405853271484375,-1.06463623046875,16434.0717855,0.7621447949479426,-0.04564211093725468,0.1412973302346478,-0.8411664962768555,-0.1395421177148819,-5.737605571746826,0.06076602637767792,0.1894268840551376,0.07149213552474976,XArbitraryZVertical,0.07397478834732026,0.005117356096800143,0.3693965428513614,0.9263086097634579,-0.04517155885696411,-0.1408276408910751,-0.98900306224823,0,0,0,-1,-1,,,,,,,,,,,,,,,,,,1,0.71
2021-12-13 16:14:14.993 -0500,,,,,,,,,,16434.0866935,-0.008636474609375,-0.1476898193359375,-1.0205078125,16434.0817245,0.7098492623620865,-0.04428787863489858,0.1305058087420129,-1.754453420639038,-0.9060601592063904,-4.711050033569336,0.000622965395450592,0.01696121692657471,-0.000732719898223877,XArbitraryZVertical,0.0688059159752136,0.001937141976684806,0.3453412625418589,0.9359494365566758,-0.04389690980315208,-0.1301356703042984,-0.9905239939689636,0,0,0,-1,-1,,,,,,,,,,,,,,,,,,1,0.71
2021-12-13 16:14:15.003 -0500,,,,,,,,,,16434.0966325,-0.0368499755859375,-0.1480560302734375,-1.023239135742188,16434.0916625,0.6628464081089814,-0.04783113604505325,0.1125605594670517,-2.226082324981689,-0.9521746635437012,-4.531057834625244,-0.009496524930000305,-0.08222654461860657,-0.0706360936164856,XArbitraryZVertical,0.0609430191171905,-0.004278041870235155,0.3235090683892299,0.9442508282412745,-0.04751032963395119,-0.112323023378849,-0.9925352931022644,0,0,0,-1,-1,,,,,,,,,,,,,,,,,,1,0.71
2021-12-13 16:14:15.013 -0500,,,,,,,,,,16434.1065705,0.0487060546875,-0.260589599609375,-1.102783203125,16434.1016015,0.6196626006596258,-0.05328473946809895,0.09476444835917761,-1.688878417015076,-1.04435670375824,-3.856810331344604,0.04143912345170975,-0.0372590497136116,-0.005213081836700439,XArbitraryZVertical,0.05320635680426691,-0.01090610357269975,0.3032460230121074,0.9513632171278312,-0.05302056297659874,-0.09462267905473709,-0.9941002726554871,0,0,0,-1,-1,,,,,,,,,,,,,,,,,,1,0.71
2021-12-13 16:14:15.023 -0500,,,,,,,,,,16434.1165095,0.0634613037109375,-0.1612091064453125,-0.9848480224609375,16434.1115405,0.5835079787492414,-0.05910905684827209,0.08372447461749487,-0.9721953272819519,-0.7296411991119385,-3.321304321289062,0.03983998671174049,-0.1366949677467346,-0.08675557374954224,XArbitraryZVertical,0.04855612076130238,-0.01624449581891302,0.2860706205898758,0.9568396147268337,-0.05886771529912949,-0.08362669497728348,-0.994756817817688,0,0,0,-1,-1,,,,,,,,,,,,,,,,,,1,0.71
2021-12-13 16:14:15.032 -0500,,,,,,,,,,16434.1264485,-0.0584716796875,-0.0240478515625,-1.03741455078125,16434.1214785,0.5496503456966386,-0.06172174665596822,0.07924963655349748,-0.2977756559848785,-0.3822439014911652,-3.492625713348389,0.1517752110958099,-0.1458699405193329,-0.05371236801147461,XArbitraryZVertical,0.04647674755122703,-0.01892932275180361,0.2698600525599956,0.9615909971398146,-0.06148896738886833,-0.0791667103767395,-0.9949631690979004,0,0,0,-1,-1,,,,,,,,,,,,,,,,,,1,0.71
2021-12-13 16:14:15.042 -0500,,,,,,,,,,16434.1363865,0.0171966552734375,-0.000579833984375,-1.097946166992188,16434.1314175,0.515875405780334,-0.06277371781099225,0.08079006861197852,0.1133639439940453,-0.3774528801441193,-3.127894878387451,0.0552951991558075,-0.01658784598112106,0.01589322090148926,XArbitraryZVertical,0.04702737406153801,-0.02002241265583816,0.253528010831269,0.9659767040417023,-0.06252788007259369,-0.08070220798254013,-0.9947750568389893,0,0,0,-1,-1,,,,,,,,,,,,,,,,,,1,0.71
2021-12-13 16:14:15.052 -0500,,,,,,,,,,16434.1463255,0.0423431396484375,-0.0206451416015625,-1.05682373046875,16434.1413565,0.4885819459231785,-0.06269420307323173,0.08481100684239032,0.3575848639011383,-0.06339065730571747,-2.431115865707397,0.02003901451826096,0.09943409264087677,-0.1033149361610413,XArbitraryZVertical,0.04868772277157096,-0.02013561554805664,0.2402430351568514,0.9692818627746813,-0.06242794543504715,-0.08470936864614487,-0.9944481253623962,0,0,0,-1,-1,,,,,,,,,,,,,,,,,,1,0.71
2021-12-13 16:14:15.062 -0500,,,,,,,,,,16434.1562645,-0.0080108642578125,-0.0264434814453125,-1.093093872070312,16434.1512945,0.4669976613207805,-0.06080856584531646,0.09231726042023256,0.9596987366676331,0.02147016674280167,-2.099586963653564,0.1212422847747803,0.08811207860708237,-0.07039910554885864,XArbitraryZVertical,0.0518957770626482,-0.01887155030599586,0.2296649074956357,0.9717019292338345,-0.06051232293248177,-0.09218619018793106,-0.9939013719558716,0,0,0,-1,-1,,,,,,,,,,,,,,,,,,1,0.71
2021-12-13 16:14:15.072 -0500,,,,,,,,,,16434.1662025,-0.0039825439453125,0.0183563232421875,-1.010421752929688,16434.1612335,0.4449151330382862,-0.05762034874009938,0.10558093771846,1.376036524772644,0.2129134088754654,-2.492393493652344,0.05891572311520576,0.04683689773082733,-0.08313131332397461,XArbitraryZVertical,0.05779092791056033,-0.01642043275551747,0.2187459908200842,0.9739305206434592,-0.05726778879761696,-0.105384886264801,-0.9927811622619629,0,0,0,-1,-1,,,,,,,,,,,,,,,,,,1,0.71
2021-12-13 16:14:15.082 -0500,,,,,,,,,,16434.1761415,-0.0761260986328125,-0.0108489990234375,-0.947021484375,16434.1711725,0.4184847246609327,-0.05206216335474802,0.1206417834649469,1.341247081756592,0.2615752220153809,-2.951955795288086,0.05863366276025772,0.137500211596489,-0.0772780179977417,XArbitraryZVertical,0.06434615718276691,-0.01289617768529079,0.205735954235695,0.9764045834538292,-0.05166041105985641,-0.1203493475914001,-0.9913865327835083,0,0,0,-1,-1,,,,,,,,,,,,,,,,,,1,0.71
2021-12-13 16:14:15.092 -0500,,,,,,,,,,16434.1860805,-0.05621337890625,-0.0526885986328125,-0.9756011962890625,16434.1811105,0.3882344250878049,-0.04572116909261306,0.1348218705936842,1.153891563415527,0.2351182997226715,-3.114848136901855,-0.001340392976999283,0.1331930905580521,0.02913534641265869,XArbitraryZVertical,0.07047690754151151,-0.009387973547070921,0.1909011530726586,0.9790309689466478,-0.04529048129916191,-0.1344137936830521,-0.9898897409439087,0,0,0,-1,-1,,,,,,,,,,,,,,,,,,1,0.71
2021-12-13 16:14:15.102 -0500,,,,,,,,,,16434.1960185,-0.033660888671875,-0.0819854736328125,-0.9298248291015625,16434.1910495,0.3604853579060302,-0.03975927259951956,0.1443272100948198,0.4785269796848297,0.1778057366609573,-2.452555418014526,-0.04087993875145912,0.1244327425956726,0.02239018678665161,XArbitraryZVertical,0.0744732322775097,-0.006582534211491652,0.1773563935887197,0.9813027584622095,-0.03933552652597427,-0.1438266634941101,-0.9888207912445068,0,0,0,-1,-1,,,,,,,,,,,,,,,,,,1,0.71
2021-12-13 16:14:15.112 -0500,,,,,,,,,,16434.2059575,-0.0834503173828125,-0.04766845703125,-1.01800537109375,16434.2009885,0.3377691734208101,-0.03509090727035964,0.1478670730257947,0.1869577467441559,0.1009090319275856,-2.192968368530273,0.004641029983758926,0.06487031280994415,0.04000759124755859,XArbitraryZVertical,0.07574496723505517,-0.004833963848011478,0.166320415048756,0.9831464507008885,-0.03470085933804512,-0.1473288238048553,-0.9884786605834961,0,0,0,-1,-1,,,,,,,,,,,,,,,,,,1,0.71
2021-12-13 16:14:15.122 -0500,,,,,,,,,,16434.2158965,-0.073150634765625,-0.032989501953125,-1.048507690429688,16434.2109265,0.3154829595485703,-0.03099248235186639,0.1511199258654845,0.2834049165248871,0.0658985823392868,-2.208737134933472,-0.02754741534590721,0.08363558351993561,0.03030365705490112,XArbitraryZVertical,0.07696914395132486,-0.003402715323614886,0.1554658794908497,0.9848323192273212,-0.03063435852527618,-0.1505453884601593,-0.9881283640861511,0,0,0,-1,-1,,,,,,,,,,,,,,,,,,1,0.71
2021-12-13 16:14:15.132 -0500,,,,,,,,,,16434.2258345,-0.0424346923828125,-0.094085693359375,-0.987548828125,16434.2208655,0.2955142968738449,-0.02706223758145587,0.1533692124340999,0.03120089694857597,0.1123992055654526,-1.743163466453552,-0.06433840841054916,0.1247382462024689,-0.06837427616119385,XArbitraryZVertical,0.07775391481226056,-0.00206652052751581,0.1457487123647541,0.9862593001508415,-0.02674131654202938,-0.1527686566114426,-0.9879001379013062,0,0,0,-1,-1,,,,,,,,,,,,,,,,,,1,0.71
2021-12-13 16:14:15.142 -0500,,,,,,,,,,16434.2357735,-0.0449371337890625,-0.104949951171875,-0.9826507568359375,16434.2308045,0.2800678218000375,-0.02348917664477795,0.1533207957005837,-0.06804792582988739,0.1293430328369141,-1.38884711265564,-0.02721881121397018,0.08768783509731293,-0.03107672929763794,XArbitraryZVertical,0.07746484507920758,-0.0009064116907779301,0.1382665196398261,0.987360536440354,-0.02321149967610836,-0.1527208089828491,-0.9879967570304871,0,0,0,-1,-1,,,,,,,,,,,,,,,,,,1,0.71
