acc_t,acc_x,acc_y,acc_z,gyr_t,yaw,roll,pitch,gyr_x,gyr_y,gyr_z,acc_x_2,acc_y_2,acc_z_2,quat_x,quat_y,quat_z,quat_w
16214.080037625,-0.0247650146484375,-0.036041259765625,-0.997711181640625,16214.075067625,0.2527365224953997,-0.01739600771977,0.0159602608873494,-0.0097280694171786,0.0053630638867616,-0.0212037339806556,-0.0001547057181596,-0.0232250094413757,0.003322422504425,0.0090122946607428,-0.0076225591556945,0.1259545676843246,0.991965768018391
16214.089976625,-0.013275146484375,-0.0381622314453125,-0.9968414306640624,16214.085006625,0.2525891716050391,-0.0173623079797072,0.0158155831047366,-0.0187790878117084,0.0004287585616111,-0.0023307097144424,-0.014028076082468,-0.0202721320092678,-0.0010234117507934,0.0089378544093592,-0.0076156243323856,0.1258823265435134,0.9919757016943008
16214.099915625,-0.014556884765625,-0.0182342529296875,-1.000717163085938,16214.094945625,0.2526168187752391,-0.0173832301056342,0.0156209526295335,-0.0160325728356838,-0.0085350079461932,-0.0007316146511584,-0.0009455848485231,-0.0235184989869594,0.0038926005363464,0.00884274434858,-0.0076381428015982,0.1258968831900035,0.9919745161083676
16214.109854625,0.0222930908203125,-0.018280029296875,-0.990478515625,16214.104884625,0.2523411419093005,-0.0175772331093859,0.0155328270401416,-0.0060331998392939,-0.0450749099254608,-0.0539295896887779,0.0043143071234226,-0.0139935761690139,0.0017085671424865,0.0088101814737131,-0.0077411337198531,0.1257597223263364,0.9919913770499378
16214.119793625,-0.03253173828125,-0.0184478759765625,-1.016464233398438,16214.114823625,0.2499913857325272,-0.0167394303521084,0.0154930128349204,0.0012982157059013,-0.0491741821169853,-0.0498696006834507,-0.0321067571640014,0.0144395157694816,-0.00627201795578,0.0087291362024904,-0.0073383531056508,0.1245980213010367,0.9921417873903532
16214.129732625,-0.0217742919921875,-0.030609130859375,-1.003768920898438,16214.124762625,0.2496997350307568,-0.016886161324656,0.0155099940123303,-0.0089696012437343,-0.005708728916943,-0.0046611088328063,-0.0279622636735439,0.0056979497894644,-0.0197482705116272,0.0087456202080996,-0.0074113583437847,0.124452618080162,0.9921593699797224
16214.139671625,-0.0261993408203125,-0.015655517578125,-1.007659912109375,16214.134701625,0.2496235085351822,-0.0168995706559725,0.0154362274188351,-0.0098614944145083,0.0018449276685714,-0.0168610494583845,-0.0052437614649534,-0.0168825220316648,0.0026677846908569,0.0087095782057279,-0.0074229374059929,0.1244150896585691,0.9921643073333788
16214.149610625,-0.0086517333984375,-0.009490966796875,-1.004501342773438,16214.144640625,0.2494331394975026,-0.0168564379317438,0.0153544012790432,-0.0067583788186311,0.0005197394639253,-0.0122564435005188,-0.0120617654174566,-0.0041316980496048,-0.0086675286293029,0.0086655979939149,-0.0074074603021639,0.1243212177106844,0.9921765900335155
16214.159549625,-0.0160369873046875,0.0005645751953125,-1.009933471679688,16214.154579625,0.2493008867855571,-0.0168746417211417,0.0153646670529177,0.0044761663302779,-0.0050119794905185,-0.0171723738312721,-0.0001569706946611,0.002424587495625,-0.0076303482055664,0.0086713319501458,-0.0074164256985022,0.1242554834403716,0.992184692595392
16214.169488625,-0.024017333984375,-0.0059356689453125,-1.00970458984375,16214.164518625,0.2490304519096266,-0.0169541347774327,0.0154574046277848,0.0063281282782554,-0.0050215665251016,-0.0281688310205936,0.0061938390135765,0.010543436743319,-0.0060767531394958,0.0087212688188142,-0.0074512733570883,0.1241205424423081,0.9922008846136128
16214.179427625,-0.0252838134765625,-0.0116119384765625,-1.008987426757812,16214.174457625,0.2488779626560638,-0.0170054733274356,0.0156112305805536,0.0092972861602902,-0.0016556298360228,-0.001517113763839,-0.0040698181837797,0.0154732465744018,-0.011161208152771,0.0088001972389787,-0.0074678568431871,0.1240439437850213,0.992209653910424
16214.189366625,-0.024658203125,-0.0099029541015625,-1.006317138671875,16214.184396625,0.2488903384961939,-0.0169033896284652,0.0157010615393325,0.0055840411223471,0.0168421529233455,-0.0019922216888517,-0.0084443595260381,0.0037375036627054,-0.0097570419311523,0.0088384766647347,-0.007411580612753,0.124050114088308,0.9922089484850778
16214.199305625,-0.016021728515625,-0.017669677734375,-1.00433349609375,16214.194335625,0.2488840859405413,-0.0167970142203439,0.0156836912928508,-0.00071566645056,0.0200943052768707,0.0079393722116947,-0.0088101010769605,0.0066193081438541,-0.0060928463935852,0.0088232383677487,-0.0073599133966705,0.1240475627267351,0.9922097893186884
16214.209244625,-0.0081787109375,-0.01239013671875,-1.0069580078125,16214.204274625,0.2490549503438311,-0.0166687958893568,0.0156737645635467,0.0019536199979484,0.0174258165061473,0.0180247630923986,-0.0035214144736528,0.0011009573936462,-0.0064262747764587,0.0088109842744206,-0.0072961671590163,0.1241329376489968,0.9921997133772238
16214.219183625,-0.000335693359375,-3.0517578125e-05,-1.00872802734375,16214.214213625,0.2490551356260303,-0.0165801454302307,0.0157858344770881,0.014664621092379,0.0040342807769775,-0.0254024732857942,0.0059724487364292,-0.000801146030426,-0.0062892436981201,0.0088610802100894,-0.0072452240688044,0.1241329103500407,0.9921995935696202
16214.229122625,-0.0054473876953125,-0.0088653564453125,-1.005355834960938,16214.224152625,0.2485610809982506,-0.0166522698682659,0.0159679773164066,0.0198250282555818,-0.0126376412808895,-0.0666769444942474,0.0121480245143175,0.0105656664818525,-0.0085821151733398,0.008954120414604,-0.00727190042486,0.1238866480697039,0.992229312528586
16214.239061625,-0.0118865966796875,-0.0256500244140625,-1.00384521484375,16214.234091625,0.247936154538923,-0.0167935094701257,0.0161765790254733,0.0170984845608472,-0.0160014126449823,-0.0571558736264705,0.0149289369583129,0.0155502408742904,-0.0077943801879882,0.0090640673888576,-0.0073318687091165,0.1235750029064257,0.9922667240842208
16214.249000625,-0.0173187255859375,-0.032318115234375,-1.000595092773438,16214.244030625,0.2474432090639291,-0.0169156021941713,0.0162801124000222,0.0054394314065575,-0.0099919894710183,-0.0442499294877052,0.0096646174788475,-0.0025804918259382,-0.0048074126243591,0.0091211565519806,-0.0073882875445807,0.1233293998769656,0.992296277996907
16214.258939625,-0.0160064697265625,-0.035858154296875,-0.9999847412109376,16214.253969625,0.2472188415777302,-0.0169697139898222,0.0159556497897589,-0.0615515820682048,-0.0029505267739295,0.0111464820802211,0.0006550829857587,-0.0127620864659547,-0.002010703086853,0.0089626791630612,-0.0074361699646893,0.1232193472538621,0.992311143098873
16214.268878625,-0.0269622802734375,-0.0047607421875,-1.014495849609375,16214.263908625,0.2472866018163988,-0.0169047343294966,0.015693911710533,0.0116941314190626,0.0141658764332532,-0.0177679900079965,0.0016277879476547,-0.0198902506381273,0.0028620362281799,0.0088290661987319,-0.0074197737839884,0.1232544806233063,0.9923081229730016
16214.278817625,-0.0204620361328125,0.001190185546875,-1.007080078125,16214.273847625,0.2466533031480919,-0.0168605723665498,0.0156583217908946,-0.0082404278218746,-0.0061557730659842,-0.0935583561658859,-0.0050997026264667,-0.0100076235830783,-0.011296808719635,0.0088063430460665,-0.0074028471326854,0.1229406204316499,0.9923473959086674
16214.288756625,-0.00909423828125,-0.00592041015625,-1.007034301757812,16214.283786625,0.2458764345720441,-0.0170297004403169,0.0156875967618137,0.0134238544851541,-0.0274227112531662,-0.0637858137488365,-0.0114919058978557,0.0221719183027744,-0.0086450576782226,0.0088283566637487,-0.0074883924113744,0.1225542685647254,0.992394331798399
16214.298695625,-0.0203094482421875,-0.000396728515625,-1.000656127929688,16214.293725625,0.2451615646587203,-0.0173716567415654,0.0161455913136932,0.0499299354851245,-0.0459266901016235,-0.0985845401883125,0.0062448512762784,0.0092326384037733,-0.004538357257843,0.0090738344606288,-0.0076332186145031,0.1221958410476632,0.9924351753130776
16214.308634625,-0.0180816650390625,-0.0294036865234375,-0.9976806640625,16214.303664625,0.244002310552765,-0.0177038304167733,0.0165677125471057,0.0413963682949543,-0.0295351985841989,-0.1247018948197365,0.0028536617755889,0.016673743724823,-0.0066110491752624,0.0092990828097637,-0.0077776197579833,0.121617006897622,0.9925030599193072
16214.318573625,-0.0239715576171875,-0.040130615234375,-0.994110107421875,16214.313603625,0.2429835180946022,-0.0178873635487935,0.0168796114823322,0.0183616206049919,-0.018115896731615,-0.0737755969166755,-0.0013422258198261,0.0007197298109531,0.0022457838058471,0.0094610202670103,-0.0078545295846852,0.1211090145001178,0.9925630681645774
16214.328512625,-0.02349853515625,-0.0313720703125,-0.99884033203125,16214.323542625,0.2425913257290313,-0.0179546731268917,0.0170567000181793,0.0163922142237424,0.0033622309565544,-0.0079228151589632,-0.0022820699959993,-0.0193821378052234,0.0044846534729003,0.0095514363609167,-0.0078790708860462,0.120913186196211,0.9925857949569454
16214.338451625,-0.0319976806640625,-0.0130615234375,-1.004364013671875,16214.333481625,0.2425767773387979,-0.0178690941950029,0.0171795164778249,0.0071126953698694,0.0102577544748783,-0.0064346408471465,-0.0060755461454391,-0.0220822133123874,0.0032786130905151,0.0096071569777516,-0.0078292339417811,0.1209057619754469,0.9925865933564426
16214.348390625,-0.0253753662109375,-0.0141143798828125,-1.00311279296875,16214.343420625,0.2424119559674238,-0.0177365550791535,0.0173167747047143,0.0134590081870555,0.0136325117200613,-0.0223486274480819,-0.0096718315035104,-0.0020475164055824,-0.0010091066360473,0.0096666244470884,-0.0077559441680371,0.1208239216000213,0.992596564467651
16214.358329625,-0.0200958251953125,-0.0272369384765625,-1.001708984375,16214.353359625,0.2423442461755587,-0.0175594675661535,0.0174109672025272,0.0032114307396113,0.0242792963981628,0.0122711369767785,-0.0150979161262512,0.0058896783739328,-0.0058141350746154,0.0097024133573966,-0.0076626867972535,0.1207907111515175,0.9926009960737188
16214.368268625,-0.0269927978515625,-0.014678955078125,-1.008712768554688,16214.363298625,0.2424986206693737,-0.0173159601482863,0.0173922373897033,-0.0007367054931819,0.0256516262888908,0.0067975409328937,-0.0031495727598667,-0.0049017518758773,-0.0013539791107177,0.0096789932515524,-0.0075422193949581,0.1208685971910255,0.9925926710618328
16214.378207625,-0.0200958251953125,-0.01666259765625,-1.00579833984375,16214.373238625,0.2425244834818724,-0.017054104114071,0.0173046483894081,-0.010939541272819,0.0274923015385866,0.0118744596838951,-0.0088129360228776,-0.0054318327456712,-0.0047201514244079,0.0096197950790611,-0.0074174368173313,0.1208831202214399,0.9925923790376228
16214.388146625,-0.01629638671875,-0.014129638671875,-1.00836181640625,16214.383177625,0.2428415459123836,-0.0167562059804606,0.0171984027861165,-0.0027074450626969,0.0287285391241312,0.0494223684072494,-0.008042600005865,0.0036477278918027,-0.0079176425933837,0.0095502141126668,-0.0072745063043815,0.1210424008705757,0.9925747293739756
16214.398085625,-0.0165557861328125,-0.006103515625,-1.0084228515625,16214.393116625,0.243225360666088,-0.0164574625720837,0.0171838599891097,0.0038676336407661,0.0304383244365453,0.020359955728054,-4.047155380249023e-05,-0.0004256479442119,-0.007256269454956,0.0095262837038492,-0.0071252966702579,0.1212343705434476,0.9925526371835108
16214.408024625,-0.00921630859375,-0.0184478759765625,-1.004501342773438,16214.403055625,0.2432040334516371,-0.0162312459785398,0.0172829619022595,0.005877521354705,0.0178367774933576,-0.0136504750698804,-0.0009227823466062,0.009637426584959,-0.0076357722282409,0.0095616769745113,-0.0070071182619181,0.1212244073631753,0.9925543959118974
16214.417963625,-0.0149993896484375,-0.019439697265625,-1.0045166015625,16214.412993625,0.243224506565021,-0.0160986823059109,0.0174069183500052,0.0089364284649491,0.0145094562321901,0.013989808037877,0.0021184850484132,0.007426768541336,-0.0078188776969909,0.0096152289410081,-0.0069337097259647,0.1212346436220647,0.9925531198437398
16214.427902625,-0.0215301513671875,-0.011810302734375,-1.009796142578125,16214.422933625,0.2432958413231235,-0.0160080105953862,0.0175334545533329,0.0158776901662349,0.0085839238017797,-0.0042770807631313,0.0073226038366556,-0.00454693287611,-0.003303050994873,0.0096727740583035,-0.0068806874438176,0.1212699124781456,0.992548612110208
16214.437841625,-0.0168914794921875,-0.0182647705078125,-1.006988525390625,16214.432872625,0.2432257243509946,-0.0159727151856012,0.0176828572248492,0.0163738392293453,0.0058279838413,-0.0037539033219218,-0.0042178500443696,0.003353914245963,-0.0088592767715454,0.0097445370383491,-0.0068544434331755,0.1212346139059456,0.9925524038074768
16214.447780625,-0.017669677734375,-0.018463134765625,-1.006698608398438,16214.442811625,0.2433229240257019,-0.0158731230606234,0.0178279031531103,0.0121966693550348,0.0131434220820665,0.0215549152344465,-0.0029899422079324,0.0041245445609092,-0.0080057978630065,0.0098108121869246,-0.0067957390892183,0.1212826901937862,0.992546256529489
16214.457719625,-0.01165771484375,-0.0184326171875,-1.004287719726562,16214.452750625,0.2435561156834925,-0.015734194865009,0.0179391672367405,0.0071166902780532,0.0198214314877986,0.0247075650840997,-0.0009926296770572,-0.0024322979152202,-0.0070747733116149,0.0098583869101154,-0.006718888207965,0.1213985988590737,0.9925321698653172
16214.467658625,-0.009033203125,-0.0171051025390625,-1.000747680664062,16214.462689625,0.2439066775989999,-0.0155397202232961,0.0179518377655417,0.0004824898205697,0.0203213058412075,0.0486682951450347,-0.0010955007746815,0.0006473865360021,-0.006995677947998,0.0098540310123285,-0.0066198800205645,0.1215734742502247,0.992511448587364
16214.477597625,-0.0148468017578125,-0.0136871337890625,-0.99945068359375,16214.472628625,0.2444066798029876,-0.0153136035532947,0.0179598588017687,-0.0005617355927824,0.0240751337260007,0.0431972257792949,0.0062315445393323,-0.0016181543469429,-0.0040626525878906,0.0098458923312997,-0.0065047186520289,0.1218226714171269,0.9924817910921327
16214.487536625,-0.0142974853515625,-0.017669677734375,-0.995574951171875,16214.482567625,0.2446997093393085,-0.0150670065303986,0.01790847827998,-0.0044909631833434,0.0251955259591341,0.0184684451669454,0.0032689645886421,0.0024656038731336,-0.0004111528396606,0.0098063108568162,-0.0063840436670485,0.1219695209040408,0.9924648945868052
16214.497475625,-0.0094757080078125,-0.0257110595703125,-0.995086669921875,16214.492506625,0.2450611022763031,-0.0148194876073291,0.017782649503742,-0.0139009775593876,0.0308816730976104,0.0572902783751487,-0.0002590930089354,0.0056662149727344,0.0009375810623168,0.0097299091084332,-0.0062671406218425,0.1221505975631846,0.9924441243280993
16214.507414625,-0.0108184814453125,-0.015716552734375,-0.9998016357421876,16214.502445625,0.2457215799826091,-0.0145112773297469,0.01763610836491,-0.0175364576280117,0.0293663367629051,0.0707951635122299,0.0039799343794584,-0.006611043587327,0.0057511925697326,0.0096403908501767,-0.0061199761046262,0.1224804419489785,0.9924052457646118
16214.517353625,-0.0080108642578125,-0.0069580078125,-1.001846313476562,16214.512384625,0.2463306653240576,-0.0142750997249116,0.0174365131466599,-0.0170142129063606,0.0240594558417797,0.0522478483617305,0.0036370567977428,-0.0032095350325107,0.0016229748725891,0.0095287202347867,-0.0060121182605911,0.1227846168713499,0.9923694066756784
16214.527292625,-0.01416015625,-0.0074005126953125,-1.004226684570312,16214.522323625,0.2467138040300197,-0.0140317901141938,0.0172314907573012,-0.0245091468095779,0.0268219523131847,0.0303888861089944,0.0055911242961883,0.0069461930543184,0.0001040697097778,0.0094131862007697,-0.005902187900451,0.1229767044785517,0.9923473765738144
16214.537231625,-0.0153961181640625,-0.0175628662109375,-1.004287719726562,16214.532262625,0.2471569236377422,-0.0137770683960339,0.0169782356774455,-0.0211730040609836,0.0272474903613328,0.0692392140626907,0.0026204604655504,0.0108891427516937,-0.0034891366958618,0.0092731499527066,-0.0057893345378759,0.1231987646221898,0.9923218009387844
16214.547170625,-0.0160675048828125,-0.0052337646484375,-1.010910034179688,16214.542201625,0.2479814926083025,-0.013507091442667,0.0167964270410157,-0.0084825092926621,0.0275172684341669,0.087411031126976,-0.0010521225631237,0.0037188325077295,-0.0050998330116271,0.0091686489396175,-0.0056628123340824,0.1236098187588504,0.9922724611149996
16214.557109625,-0.00970458984375,0.005584716796875,-1.008285522460938,16214.552140625,0.2485936713630443,-0.0133417152871023,0.0167724626456157,0.0040061180479824,0.0059914700686931,0.0315608084201812,-0.0018735826015472,0.0024894289672374,-0.0074928402900695,0.0091482478042232,-0.0055794461303274,0.123914399824858,0.992235020852326
16214.567048625,-0.00677490234375,-0.01727294921875,-1.00238037109375,16214.562079625,0.2487290340989069,-0.0133751936914066,0.0168559535585848,0.011091724038124,-0.0076558981090784,0.0028372877277433,-0.0005889097228646,0.0199679248034954,-0.0106532573699951,0.0091921217580124,-0.0055902559224054,0.1239810888865623,0.9922261632554152
16214.576987625,-0.0205078125,-0.0192718505859375,-1.003494262695312,16214.572018625,0.2487977512935289,-0.0134906061241419,0.0170016612955869,0.0161826238036155,-0.0124067440629005,0.0054760803468525,0.0073084253817796,0.0125452540814876,-0.0044164061546325,0.0092717553267043,-0.0056381539429643,0.1240140734498304,0.99222113074026
16214.586926625,-0.0333404541015625,-0.025299072265625,-1.005615234375,16214.581957625,0.2486967748972384,-0.0135738089278913,0.0171201236484921,0.001804216299206,-0.0059712156653404,-0.0297847054898738,0.0020357463508844,-0.0051890853792428,-0.0032598972320556,0.0093353978727324,-0.0056725508675413,0.1239631331012562,0.9922266814760492
16214.596865625,-0.032379150390625,-0.0354156494140625,-1.0059814453125,16214.591896625,0.2484727894839414,-0.0135235650069423,0.0171076669281907,-0.0040997453033924,0.0148913208395242,-0.0042500495910644,-0.0151806212961673,-0.0039503183215856,-0.004266083240509,0.0093254711054408,-0.0056494413869167,0.123852292217403,0.9922407550377812
16214.606804625,-0.03179931640625,-0.0292205810546875,-1.007461547851562,16214.601835625,0.2486312112803908,-0.0133099799212583,0.0170532374719819,-0.0047900369390845,0.0239828210324049,0.0252252835780382,-0.0196666046977043,-0.0140907987952232,-0.0064595341682434,0.0092856799974844,-0.0055461154231153,0.1239320840173125,0.9922318141430034
16214.616743625,-0.0277252197265625,-0.0233154296875,-1.010940551757812,16214.611774625,0.2487911153210038,-0.0130645351649385,0.0169781043152312,-0.0038424842059612,0.0260107200592756,0.0009136861190199,-0.0192253291606903,-0.0173702668398618,-0.0058141350746154,0.0092336313638895,-0.0054282682838816,0.1240128466765036,0.9922227743454348
16214.626682625,-0.016510009765625,-0.0222625732421875,-1.005935668945312,16214.621713625,0.2486628758388514,-0.0128250859561599,0.0169050144442189,-0.0091688064858317,0.024404564872384,-0.0248875506222248,-0.0185644403100013,-0.0085627324879169,-0.0119743943214416,0.0091821826917122,-0.0053145994954736,0.123950598436543,0.9922316653279548
16214.63662016667,-0.0174713134765625,-0.019683837890625,-1.007949829101562,16214.63165116667,0.2483315393570634,-0.0126023154280933,0.0168405386784579,-0.0050504934042692,0.0206574983894825,-0.0372877642512321,-0.0078313359990715,-0.0062468275427818,-0.0065230727195739,0.0091355260449718,-0.0052095922607169,0.1237874687502275,0.9922530499182312
16214.64655916667,-0.0296630859375,-0.00762939453125,-1.013214111328125,16214.64159016667,0.2479143771450905,-0.0124239626846345,0.0168211543032124,0.0085196439176797,0.0167378596961498,-0.0525977425277233,-0.0038134790956974,-0.004694553092122,-0.0069324970245361,0.009113801544947,-0.0051242085947133,0.1235813853129193,0.9922793774756392
16214.65649816667,-0.03411865234375,-0.0014190673828125,-1.015396118164062,16214.65152916667,0.2468895773665907,-0.0122061970851776,0.0169722297110234,0.0250333733856678,0.0172191578894853,-0.157643735408783,-0.0100584495812654,0.0012090634554624,-0.009541630744934,0.0091727330799412,-0.0050115245028804,0.1230733876124856,0.9923424857328724
16214.66643716667,-0.011993408203125,-0.03656005859375,-1.002883911132812,16214.66146816667,0.2452247202604273,-0.011959884128326,0.0172265794502094,0.0183288641273975,0.0279437061399221,-0.1554721891880035,-0.0242512933909893,0.016218626871705,-0.0170350670814514,0.0092797152938838,-0.0048813726801473,0.1222475346672054,0.9924441870804642
16214.67637616667,-0.0154266357421875,-0.0230560302734375,-1.0037841796875,16214.67140716667,0.2439428728553535,-0.0117062431889879,0.0174123494193309,0.0157461315393447,0.0204472411423921,-0.1216836050152779,-0.0127403894439339,-0.0008380617946386,-0.0092532634735107,0.0093533500283849,-0.0047501414783161,0.1216119531894204,0.992522329847057
16214.68631516667,-0.022125244140625,-0.007904052734375,-1.009536743164062,16214.68134616667,0.2421778573940594,-0.011547765781235,0.0175746246708471,0.0029022376984357,0.0152162592858076,-0.2402302175760269,0.0035195900127291,-0.0197950769215822,0.0002214312553405,0.0094201257985529,-0.0046699349281702,0.1207361854319093,0.9926290072320764
16214.69625416667,-0.0087127685546875,-0.02606201171875,-1.002105712890625,16214.69128516667,0.2396198534963247,-0.0114076110927457,0.0176493172205178,0.0025682775303721,0.0137075465172529,-0.2470352649688721,-0.0107959629967808,0.0088898334652185,-0.009955883026123,0.009442850139251,-0.004607942636742,0.11946692722073,0.992782590241874
16214.70619316667,-0.02972412109375,-0.0062255859375,-1.013031005859375,16214.70122416667,0.2373575209642058,-0.011311776409527,0.0176229795842343,-0.0004826397635042,0.01136289909482,-0.2402849495410919,-0.0037811761721968,-0.0004291031509637,-0.0064142942428588,0.009418886161693,-0.0045726030481047,0.1183443945540771,0.9929173663834244
16214.71613216667,-0.05133056640625,0.022735595703125,-1.02642822265625,16214.71116316667,0.2339111849723236,-0.0112069387731178,0.018003699015028,0.0497781336307525,-0.0045087737962603,-0.4711702167987823,-0.0021160477772355,-0.0040004681795835,-0.0003316402435302,0.0095939267746816,-0.0045145472871816,0.1166324925885895,0.9931184949077004
16214.72607116667,-0.01708984375,-0.0196075439453125,-1.003509521484375,16214.72110216667,0.2284991345003101,-0.0112151149020484,0.018600276073767,0.0516082607209682,-0.0079588992521166,-0.5761632323265076,-0.0356773324310779,0.0323015749454498,-0.0266488194465637,0.0098784655630753,-0.0045105347425306,0.1139426477223608,0.9934279765241714
16214.73601016667,-0.021759033203125,-0.0203399658203125,-1.009048461914062,16214.73104116667,0.2231765691960167,-0.0111053088351923,0.0191309212723219,0.0503195561468601,0.0100630763918161,-0.5110222101211548,-0.0273948889225721,0.0281324163079261,-0.0157170295715332,0.0101239717191279,-0.0044526920258717,0.1112972583330187,0.9937255713515354
16214.74594916667,-0.039825439453125,-0.004791259765625,-1.017715454101562,16214.74098016667,0.2175775226976618,-0.0110366201993632,0.0197000334584205,0.0643927603960037,-0.0109055880457162,-0.6210408210754395,0.0026571676135063,-0.0143283642828464,-0.0006669163703918,0.0103905939037473,-0.0044159686344174,0.1085133496457169,0.9940308771605736
16214.75588816667,-0.020416259765625,-0.0363311767578125,-1.007354736328125,16214.75091916667,0.2111930674218835,-0.0110750344664407,0.0204532778709433,0.0730624124407768,-0.0093642175197601,-0.6457056403160095,-0.0252892151474952,0.0192769039422273,-0.0157123208045959,0.0107529646075392,-0.0044284998395079,0.105336953972256,0.9943686225034696
16214.76582716667,-0.0193939208984375,-0.0200042724609375,-1.00762939453125,16214.76085816667,0.2049087434342178,-0.0109348450116883,0.0213408639371713,0.0862093716859817,0.0137139372527599,-0.6431183815002441,-0.0219505652785301,-0.0012590438127517,-0.0161260962486267,0.0111732651539811,-0.0043471316438711,0.1022098423724876,0.994690587793318
16214.77576616667,-0.05133056640625,0.0031890869140625,-1.034500122070312,16214.77079716667,0.1973590604418391,-0.0103360743835009,0.0224909611457039,0.1389844417572021,0.0710297226905822,-0.9022838473320008,-0.0030639516189694,-0.0117211621254682,-0.0026256442070007,0.011699505540482,-0.0040346868174089,0.0984540821682655,0.9950646092489304
16214.78570516667,-0.0442352294921875,-0.0151824951171875,-1.015869140625,16214.78073616667,0.1874735027801042,-0.0095549531187235,0.0242080471139364,0.1751765310764313,0.0284841302782297,-1.042818307876587,-0.0265045203268528,0.0205588098615407,-0.0224485993385314,0.0124975902587577,-0.0036232461986782,0.0935340511845743,0.9955309791865612
16214.79564416667,-0.012298583984375,-0.0426177978515625,-1.000137329101562,16214.79067516667,0.1775571572856824,-0.0092169576430537,0.0259680460687138,0.1582406908273697,0.0019059143960475,-0.9558055996894836,-0.0469233766198158,0.0245460402220487,-0.0316600799560546,0.0133409500600639,-0.00343878151565,0.0885939951350359,0.9959724864809388
16214.80558316667,-0.0157623291015625,-0.025970458984375,-1.003372192382812,16214.80061416667,0.1678454769575281,-0.0089105542254341,0.0275508397767438,0.1420478671789169,0.0012843329459428,-1.030156850814819,-0.0163309928029775,-0.0062051080167293,-0.0033031105995178,0.0140997910742423,-0.0032844946555504,0.0837543199369558,0.996381279279706
16214.81552216667,0.0135498046875,-0.038177490234375,-0.98638916015625,16214.81055316667,0.1573311372911101,-0.0086053835272868,0.0287018837679436,0.0690788552165031,0.0075761508196592,-1.047337889671326,-0.0051464466378092,-0.0062294472008943,-0.0034090876579284,0.0146440267719087,-0.003161218747094,0.0785140879750016,0.9968004032945802
16214.82546116667,-0.023345947265625,-0.0030670166015625,-1.0120849609375,16214.82049216667,0.1471774047649576,-0.0080999053665487,0.0292860520844247,0.0351853407919406,0.0409594103693962,-1.042023539543152,0.0067535592243075,-0.0012815110385417,0.0030479431152343,0.0149004833143026,-0.0029620060421765,0.0734546774227194,0.9971828337781194
16214.83540016667,-0.0330963134765625,0.0076446533203125,-1.026046752929688,16214.83043116667,0.1357643044556694,-0.0072092518853831,0.0298762012349804,0.0742794796824455,0.0661706551909446,-1.244175672531128,0.0088081350550055,0.0019634086638689,0.0093238949775695,0.0151475199953558,-0.0025827075191226,0.067768304272792,0.9975827178466754
16214.84533916667,0.00048828125,-0.0007171630859375,-0.999237060546875,16214.84037016667,0.1235008506474739,-0.0061056676000072,0.0307686185765066,0.0779282748699188,0.07535882294178,-1.204547882080078,-0.0340889208018779,0.0432606898248195,-0.0293615460395813,0.0155426828325492,-0.0020973078058781,0.0616567290386957,0.9979741143490938
16214.85527816667,0.0048370361328125,0.029205322265625,-1.008529663085938,16214.85030916667,0.1109219992027761,-0.0050293299174683,0.0313797411379406,0.0321496054530143,0.0631838142871856,-1.378893136978149,-0.0087366048246622,0.0274072885513305,-0.0113386511802673,0.0158044310564307,-0.0016407953675809,0.0553861809559191,0.9983385729144904
16214.86521716667,0.033935546875,-0.012359619140625,-0.9940338134765624,16214.86024816667,0.095624971131328,-0.003958534133855,0.0315015510854623,-0.0308914110064506,0.0587259568274021,-1.660126090049744,0.0068862382322549,0.0491202212870121,-0.0018009543418884,0.0158266802121796,-0.0012239944082608,0.0477571111176745,0.9987328268468368
16214.87515616667,0.036407470703125,-0.0420074462890625,-0.9829254150390624,16214.87018716667,0.0793296378100783,-0.0029050904450757,0.0306213671984594,-0.1639021933078766,0.0455305874347686,-1.599241375923157,0.0193069130182266,0.0463178530335426,-0.00799560546875,0.0153556205556197,-0.0008441201971929,0.0396275090291049,0.9990961494022168
16214.88509516667,0.0020599365234375,-0.034637451171875,-1.005264282226562,16214.88012616667,0.0634787261590917,-0.0019890456921008,0.0286394296094245,-0.2106153666973114,0.0417656823992729,-1.610859513282776,0.0462997443974018,-0.0069022290408611,0.0185393691062927,0.0143435644544267,-0.0005395132835227,0.0317165337718057,0.9993937613205448
16214.89503416667,0.04168701171875,-0.0443115234375,-0.986053466796875,16214.89006516667,0.0474875059826265,-0.001067851254502,0.0267914254449324,-0.1708423942327499,0.0627813786268234,-1.546926379203796,0.0166009068489074,-0.0112061891704797,0.0041571855545043,0.0134042091283932,-0.0002157021734883,0.023732237787282,0.9996284910751994
16214.90497316667,0.0083465576171875,-0.028778076171875,-0.9952392578125,16214.90000416667,0.033846385106024,0.0001891252338138,0.0252192235939582,-0.1681603193283081,0.1056753247976303,-1.236957669258118,0.0141541883349418,-0.0103822275996208,-0.0005468726158142,0.0126058712962314,0.0003079205702796,0.0169222307368264,0.9997773420109762
16214.91491216667,-0.0257568359375,0.004150390625,-1.0262451171875,16214.90994316667,0.0210766108771384,0.0015679312999922,0.0230962899804025,-0.2343278974294662,0.1170084401965141,-1.369042873382568,0.0404551848769187,-0.0254134777933359,0.0214300751686096,0.011538981849293,0.0009055625785985,0.0105464564491809,0.9998774577837836
16214.92485116667,0.0166168212890625,-0.0208740234375,-1.007583618164062,16214.91988216667,0.0072900786386849,0.0032956855168531,0.0215173626140313,-0.0836654156446456,0.1574517339468002,-1.348373055458069,-0.0250386986881494,0.0188606493175029,-0.0209736227989196,0.0107523813618184,0.001686950581101,0.0036625434145836,0.999934082385472
16214.93479016667,0.0158843994140625,0.0022430419921875,-1.001495361328125,16214.92982116667,-0.0049486150160161,0.0048648111118922,0.0206155127396948,-0.1045744270086288,0.1027865260839462,-1.133997201919556,-0.010799434967339,0.0107873696833849,-0.0161239504814147,0.0103135297238623,0.0024067624275047,-0.0024490940599287,0.9999409433429544
16214.94472916667,0.0167694091796875,0.0008087158203125,-1.013961791992188,16214.93976016667,-0.0161165583490152,0.0059754307683142,0.0194044278902312,-0.114811085164547,0.0851766318082809,-1.135507464408875,0.0164866596460342,0.0059907119721174,-0.0017319917678833,0.0097257782273834,0.0029092927019381,-0.0080287910329475,0.9999161986824628
16214.95466816667,0.03857421875,-0.014251708984375,-0.9977569580078124,16214.94969916667,-0.0273203281325546,0.0070146571791393,0.0182585244686493,-0.1056458130478859,0.074402816593647,-1.096547842025757,0.0054224762134253,0.0256427396088838,-0.0096212029457092,0.0091761343942149,0.0033821471027628,-0.0136270698165393,0.9998593482440884
16214.96460716667,0.02099609375,-0.001861572265625,-0.9984283447265624,16214.95963816667,-0.0378669331113037,0.0078533615861301,0.0171343590392179,-0.1058053374290466,0.0577428787946701,-1.054462671279907,0.0202240385115146,0.0079477038234472,-0.0082190036773681,0.0086398111643975,0.0037636292252057,-0.0188978598678095,0.9997770435096334
16214.97454616667,0.020294189453125,-0.0065460205078125,-1.007049560546875,16214.96957716667,-0.0488548718674407,0.0085682035601423,0.0160272676171001,-0.1053765714168549,0.0455066226422786,-1.146890997886658,0.0281456410884857,0.0076952595263719,0.0075100660324096,0.0081157191318751,0.004086943806555,-0.0243896771997333,0.9996612548887804
16214.98448516667,0.0325775146484375,-0.034820556640625,-0.9825592041015624,16214.97951616667,-0.0593967484481541,0.0090200167837273,0.014584582958274,-0.1742701530456543,0.0130477491766214,-0.9464926719665528,0.0017385045066475,0.0147061124444007,-0.0094701051712036,0.0074228532745828,0.0042913512259734,-0.0296600437139981,0.99952327608123
16214.99442516667,-0.0072021484375,-0.024749755859375,-1.00592041015625,16214.98945516667,-0.068219829731515,0.0092072362483848,0.0123930849028299,-0.2483065575361252,0.0075778812170028,-0.8705846071243286,0.0247749183326959,-0.0093815494328737,0.0088072419166564,0.0063498280375419,0.0043895168869023,-0.0340737765486515,0.9993894658264222
16215.00436316667,-0.008026123046875,-0.0567626953125,-1.001113891601562,16214.99939416667,-0.0766782949888507,0.0094869798766139,0.0095662650998865,-0.3074886500835419,0.0227014403790235,-0.8011019229888916,0.004689005203545,-0.0190899111330509,0.0073555707931518,0.0049613602523268,0.0045565990626149,-0.0383062182394862,0.999243236287548
16215.01430316667,-0.0033416748046875,-0.0756988525390625,-0.9967803955078124,16215.00933316667,-0.083418875781394,0.0095562750571337,0.0060008258537893,-0.3855861127376556,-0.0202717576175928,-0.570450484752655,-0.0244027636945247,-0.0306966230273246,-0.0075709819793701,0.0031969988602736,0.0046488348163708,-0.0416823596998012,0.9991149400099744
16215.02424216667,-0.014678955078125,-0.0520782470703125,-1.018325805664062,16215.01927216667,-0.0888834963403364,0.0093273756481416,0.0021427026179712,-0.3741773962974548,-0.028212770819664,-0.5743261575698853,-0.0116618191823363,-0.0683834478259086,0.007049560546875,0.0012774748923257,0.0046114666715088,-0.0444216175888893,0.9990014722517112
16215.03418116667,0.0015869140625,-0.0466461181640625,-1.011154174804688,16215.02921116667,-0.0949248317787143,0.009065574788582,-0.0018352067729087,-0.4271511137485504,-0.031998123973608,-0.6160374283790588,-0.0219591185450553,-0.0692027881741523,-0.0082977414131164,-0.0007015050742075,0.0045712007353955,-0.0474482494265361,0.9988629084334048
16215.04412016667,-0.0063018798828125,-0.042388916015625,-1.021347045898438,16215.03915016667,-0.1003496259954959,0.0085428068114077,-0.0065084357065327,-0.4954167306423187,-0.068050131201744,-0.4850780367851257,-0.0157599356025457,-0.0503469184041023,-0.0186123251914978,-0.0030358619686267,0.0044292019514791,-0.050166923929957,0.9987263823729532
16215.05405916667,-0.02874755859375,-0.028594970703125,-1.037521362304688,16215.04908916667,-0.1048848053199435,0.0077489513176875,-0.0112701820554992,-0.4366846978664398,-0.0804398283362388,-0.4472691416740417,-0.0043609347194433,-0.0590910129249095,-0.01039320230484,-0.0054241820778207,0.0041644565391261,-0.0524389460729859,0.9986007008713884
16215.06399816667,-0.01934814453125,-0.0335235595703125,-1.032180786132812,16215.05902816667,-0.1087937209976993,0.0066942308036568,-0.0151677815642833,-0.3428764641284943,-0.1304896771907806,-0.3227357566356659,-0.0266519114375114,-0.0488281175494194,-0.0325928330421447,-0.0073905811768532,0.0037543925362055,-0.0543935180569466,0.9984851254615558
16215.07393716667,-0.0273284912109375,0.0052490234375,-1.040008544921875,16215.06896716667,-0.111636432146164,0.0049740709617236,-0.0181147115439564,-0.2508581280708313,-0.1968126446008682,-0.2989894151687622,-0.0328052714467048,-0.0479141622781753,-0.0362482070922851,-0.0089043543136847,0.0029883523201767,-0.0558092672812407,0.9983972293308436
16215.08387616667,-0.021392822265625,0.018280029296875,-1.033477783203125,16215.07890616667,-0.1152670701039915,0.0027532580118877,-0.0208377011079402,-0.3291065692901611,-0.2322630435228348,-0.4043701589107513,-0.0207427740097045,-0.0414661020040512,-0.0353313684463501,-0.0103220624455985,0.0019743998838879,-0.0576127757345389,0.9982836252392516
16215.09381516667,-0.0220794677734375,0.0043182373046875,-1.027175903320312,16215.08884516667,-0.1184356801718579,-0.000486724789579,-0.0251759910838248,-0.5284820199012756,-0.4132440388202667,-0.2334904372692108,-0.0308244694024324,-0.0034906193614006,-0.0421261191368103,-0.0125800007291422,0.0005020621469303,-0.0591754900176069,0.998168148387056
16215.10375416667,-0.1012420654296875,0.02752685546875,-1.082427978515625,16215.09878416667,-0.1219651684264342,-0.0050746399184028,-0.0306561513118686,-0.5548931360244751,-0.4618017077445984,-0.5457084774971008,-0.005898839328438,-0.025417611002922,-0.0246526598930358,-0.015453553904923,-0.0015981763629014,-0.0608986244374016,0.998022960876955
16215.11369316667,-0.0870513916015625,-0.0205078125,-1.079086303710938,16215.10872316667,-0.1291819636637716,-0.0099066973031378,-0.0355069226386547,-0.4319346845149994,-0.4878765046596527,-0.8289936184883118,-0.0538814514875412,-0.0154647044837474,-0.0512927174568176,-0.0180349592526551,-0.0037963782666406,-0.0644473619581505,0.9977509483440478
16215.12363216667,-0.072052001953125,-0.0146484375,-1.071456909179688,16215.11866216667,-0.1372433121569502,-0.0159443387747841,-0.0395254090427015,-0.4149096310138702,-0.6655261516571045,-0.8016091585159302,-0.0925435274839401,-0.0304361656308174,-0.0932847261428833,-0.0202608050559455,-0.0065968152448482,-0.0683950793537682,0.9974306958301028
16215.13357116667,-0.0879974365234375,0.051300048828125,-1.11126708984375,16215.12860116667,-0.1468026492065958,-0.0236057006780434,-0.0435968688792085,-0.4246506690979004,-0.7800210118293762,-1.129715800285339,-0.0441526845097541,-0.0756112858653068,-0.0664140582084655,-0.0226018462005323,-0.0101696403652943,-0.0730563429817736,0.9970197256014234
16215.14351016667,-0.0667572021484375,0.09881591796875,-1.09820556640625,16215.13854016667,-0.1589654511576405,-0.0324058979875409,-0.0465795691634577,-0.2149949371814728,-0.8859516978263855,-1.239564061164856,-0.0525958538055419,-0.0270620211958885,-0.0943977832794189,-0.0244972039912802,-0.0142979306171774,-0.0789909883331033,0.9964717348992967
16215.15344916667,-0.0854034423828125,0.1680450439453125,-1.071701049804688,16215.14847916667,-0.1707449218863965,-0.0422476791131786,-0.046543148378356,0.129156306385994,-0.96837317943573,-1.139254093170166,-0.0348522514104843,0.0269294343888759,-0.112951397895813,-0.0249801372157399,-0.0190559258314376,-0.0847369757576432,0.9959078424890788
16215.16338816667,-0.0972747802734375,0.1217498779296875,-1.06695556640625,16215.15841816667,-0.1820686265609635,-0.0523674828649236,-0.0434992247008104,0.3630119562149048,-0.9540711641311646,-1.161450505256653,-0.014600496739149,0.0940419286489486,-0.0850028991699218,-0.0240299126816059,-0.0240897800915319,-0.0902889501228288,0.9953342415295018
16215.17332716667,-0.1026763916015625,0.10919189453125,-1.03680419921875,16215.16835716667,-0.1930953539828968,-0.0621853843266739,-0.0385193103726296,0.5055661797523499,-0.931847870349884,-1.118228673934937,-0.0398142375051975,0.1208072006702423,-0.0737486481666564,-0.0221557372361624,-0.0290815893323217,-0.095737376115778,0.9947350272886
16215.18326616667,-0.2116546630859375,0.058441162109375,-1.054595947265625,16215.17829616667,-0.2053570169575005,-0.0709087453646245,-0.0326479750144115,0.47821044921875,-0.7174804210662842,-1.476306319236755,-0.0156141966581344,0.06739442050457,-0.0573658347129821,-0.0198598503741261,-0.0335835020920832,-0.1018445588374539,0.994034915406064
16215.19320516667,-0.174102783203125,-0.1186065673828125,-1.044403076171875,16215.18823516667,-0.2208549556167879,-0.0772618261414004,-0.0270511642869005,0.4210078716278076,-0.4793798327445984,-1.620342493057251,-0.0795205011963844,0.0865080133080482,-0.0372377634048461,-0.0176885601543404,-0.0368931488675232,-0.1095917096443062,0.9931343035671354
16215.20314416667,-0.0858154296875,-0.0448760986328125,-1.00860595703125,16215.19817416667,-0.2353764937647013,-0.0820071820776658,-0.0221938237152411,0.3018220961093903,-0.4259682893753052,-1.411999940872192,-0.1361834853887558,-0.0653744041919708,-0.0693715214729309,-0.0158235260023167,-0.039404200265906,-0.1168591143566135,0.9922403407136042
16215.21308316667,-0.0592498779296875,0.087188720703125,-1.025482177734375,16215.20811316667,-0.2510000445842529,-0.0861735929788192,-0.0183540717519422,0.2193716913461685,-0.3255918323993683,-1.874527931213379,-0.0359415262937545,-0.1364255845546722,-0.0232113003730773,-0.0144875968984475,-0.0415852867861136,-0.1246572280430754,0.9912221685751226
16215.22302216667,-0.00726318359375,0.0556182861328125,-1.005386352539062,16215.21805216667,-0.2718052612979385,-0.0889764289705176,-0.0140932612766064,0.2761891782283783,-0.1785033494234085,-2.280423641204834,0.0184309408068656,0.0307985357940197,-0.0175740122795105,-0.013000025745339,-0.0431086196446516,-0.1350367689725226,0.989816969395908
16215.23296116667,-0.0366668701171875,0.116607666015625,-0.987091064453125,16215.22799116667,-0.2944626940063016,-0.0907687227916998,-0.0092357808846158,0.2689467072486877,-0.1312501728534698,-2.357594728469849,0.0622741878032684,0.0642201378941535,-0.0291377305984497,-0.0112187404085111,-0.0442007183092583,-0.1463401463463623,0.9881826278313652
16215.24290016667,-0.0854644775390625,0.11737060546875,-0.9990997314453124,16215.23793016667,-0.3183530936524649,-0.0916409279791579,-0.0045807306740451,0.2308967858552933,-0.0057103605940938,-2.496371507644653,0.0783281624317169,0.068386785686016,0.0054064989089965,-0.0095192589586231,-0.0448626089055143,-0.1582348638178358,0.9863358249517468
16215.25283916667,-0.0713958740234375,0.065704345703125,-0.98370361328125,16215.24786916667,-0.3418149510686138,-0.0912215632281911,0.000239886119316,0.3245830833911896,0.0804110467433929,-2.218722820281982,0.0256806686520576,0.1393084675073624,0.004356563091278,-0.0076365675949232,-0.0449510655498957,-0.169905180747141,0.9844050700895388
16215.26277816667,-0.1312408447265625,0.09722900390625,-0.9848785400390624,16215.25780816667,-0.361328779344634,-0.0901126855784453,0.0058555271753266,0.4203825891017914,0.1368948221206665,-1.856613278388977,0.0056539177894592,0.0877341330051422,-0.0012820959091186,-0.0052159068843015,-0.0448333778643247,-0.1796297807186509,0.982698328680254
16215.27271716667,-0.1671295166015625,-0.0026702880859375,-1.037460327148438,16215.26774716667,-0.3796421664790885,-0.088296127122587,0.0120504230632004,0.5196196436882019,0.1779372692108154,-1.921167135238647,0.004907839000225,0.0908159762620925,0.0216668844223022,-0.0024159563399598,-0.0444759517563599,-0.1887570741897689,0.9810130987651404
16215.28265616667,-0.1068878173828125,-0.0984649658203125,-0.999725341796875,16215.27768616667,-0.3970621911335285,-0.086852701758452,0.0195135227958922,0.6496239900588989,0.0301273018121719,-1.694560885429382,-0.0862771123647689,0.0923119410872459,-0.0243294835090637,0.0009940855546565,-0.0444804127792036,-0.1974494112289814,0.9793029362979254
16215.29259516667,-0.063720703125,-0.102813720703125,-1.002120971679688,16215.28762516667,-0.413911420701593,-0.0864332507873389,0.027459173349962,0.6217628121376038,0.0093317404389381,-1.878588438034058,-0.047648511826992,-0.0532175190746784,-0.0220071673393249,0.0045470263756846,-0.0450957287056685,-0.2058508038466269,0.977533227892098
16215.30253416667,0.02532958984375,-0.252227783203125,-0.958587646484375,16215.29756416667,-0.4314729771909269,-0.0854115752409725,0.0345408774655606,0.4787521362304688,0.0818874388933181,-1.640369772911072,-0.0046784132719039,-0.0416378900408744,-0.003675103187561,0.0077161187226827,-0.0453904040411854,-0.2145600370685458,0.9756249596189216
16215.31247316667,-0.0287017822265625,-0.154144287109375,-0.9417572021484376,16215.30750316667,-0.4446914190078882,-0.0840057722831301,0.0389832675849568,0.1757328659296036,0.0923427417874336,-1.164479494094849,0.0666313469409942,-0.1521734893321991,0.0043224692344665,0.0097359165609537,-0.045243265006102,-0.2210801038702956,0.9741570288740564
16215.32241216667,-0.0888519287109375,-0.061920166015625,-0.9781341552734376,16215.31744216667,-0.4572608054311479,-0.0821965509241919,0.040772005092311,0.0020588147453963,0.1895859241485596,-1.434934854507446,0.1044814810156822,-0.1873887330293655,0.0612709522247314,0.0105272605102979,-0.0446253600291786,-0.2272210798889172,0.972763272618465
16215.33235116667,-0.042144775390625,0.0092010498046875,-0.9641571044921876,16215.32738116667,-0.4725021567383586,-0.0788295720444129,0.0423356302713885,0.0821725577116012,0.3485336005687714,-1.585785031318665,-0.0009124353528022,-0.0507251322269439,0.0320731401443481,0.011341352503753,-0.0432517366358239,-0.234636179179083,0.9710544022584828
16215.34229016667,-0.048919677734375,0.1031646728515625,-0.958160400390625,16215.33732016667,-0.4886545996855022,-0.0744532259488909,0.0447171002851844,0.1379183828830719,0.3967022001743317,-1.752963900566101,0.0104520842432975,0.011422760784626,0.0209673047065734,0.0126767464019426,-0.0415080437181446,-0.2424830077677832,0.9691843459018232
16215.35222916667,-0.0359649658203125,0.0309295654296875,-0.98126220703125,16215.34725916667,-0.5079649387597135,-0.0689528830890867,0.048044170056492,0.2664337456226349,0.521503746509552,-2.127436876296997,0.0282609015703201,0.1161103844642639,0.0399295687675476,0.0145770332270281,-0.0393858192907844,-0.2518402761480393,0.9668571651982294
16215.36216816667,-0.0088958740234375,-0.0134735107421875,-0.9583892822265624,16215.35719816667,-0.5281188863374523,-0.0629081222609411,0.0524631548929555,0.3270880579948425,0.463704913854599,-1.912353515625,0.0116326883435249,0.1352637708187103,0.0219173431396484,0.0171015440050075,-0.0371906729802678,-0.2615788594165689,0.9643136348067024
16215.37210716667,-0.059967041015625,-0.03875732421875,-0.9725189208984376,16215.36713716667,-0.5459569052202117,-0.0577278248755552,0.0565782756193521,0.2811999320983887,0.4198176562786102,-1.769920110702515,0.044862363487482,0.048674538731575,0.0284750461578369,0.0194491335157898,-0.0354027440152655,-0.2701667481148768,0.9619659021065669
16215.38204616667,-0.042388916015625,-0.1754913330078125,-0.9874420166015624,16215.37707616667,-0.5626553246914435,-0.0522300338398322,0.0602559358814095,0.2671189904212952,0.4749789237976074,-1.542234778404236,0.020800519734621,0.0535666272044181,0.0360237956047058,0.0216830879988005,-0.0334344912605976,-0.2781664079115766,0.9597059049299216
16215.39198516667,-0.034149169921875,-0.148468017578125,-0.9653778076171876,16215.38701516667,-0.5750269464688997,-0.0471331508302359,0.0626211036206509,0.0621234849095344,0.3896167576313019,-1.011960744857788,-0.0161175094544887,-0.0494498685002327,0.0076889991760253,0.0233332246488293,-0.0314608212609507,-0.2840583701132268,0.9580065765539146
16215.40192416667,-0.0139617919921875,-0.082061767578125,-0.9835205078125,16215.39695416667,-0.5855325751431788,-0.0424296479545436,0.0625526829586379,-0.1556687653064728,0.4511584043502808,-1.149195313453674,0.0141357295215129,-0.1291995346546173,0.0299524068832397,0.0238147029333753,-0.0293235677682085,-0.2890309830301254,0.9565741538509668
16215.41186316667,0.04443359375,-0.0878753662109375,-0.9659881591796876,16215.40689316667,-0.5974029520449451,-0.0366931176295366,0.0613282551020468,-0.163478747010231,0.5422053933143616,-1.167219877243042,0.0004983767867088,-0.0327501185238361,0.0219080448150634,0.0239006042502394,-0.0265458249433966,-0.2946291345931074,0.9549438753793056
16215.42180216667,0.0205078125,-0.009674072265625,-0.9530487060546876,16215.41683216667,-0.6088995057990352,-0.0308220328898181,0.0600042119571324,-0.1870653033256531,0.4997393786907196,-1.21254551410675,0.0510101094841957,-0.0343769043684005,0.0157620906829834,0.0239972062875313,-0.0236863598128196,-0.3000388093894693,0.9533308984919628
16215.43174116667,0.0114593505859375,-0.0192718505859375,-0.987945556640625,16215.42677216667,-0.6237465985817334,-0.0243713902002886,0.0591679258111825,-0.026289202272892,0.6348192691802979,-1.753556728363037,0.0667762905359268,0.0066431537270545,0.0482008457183837,0.0244132920884734,-0.0206681072405747,-0.3070281141395363,0.9511627675337596
16215.44168016667,0.030029296875,-0.040069580078125,-0.9580535888671876,16215.43671016667,-0.6418446580188524,-0.0166386745639808,0.0602834105791643,0.1328700929880142,0.6733613610267639,-1.820252180099487,0.0197510067373514,0.0633291602134704,0.0251602530479431,0.0259744500913365,-0.0173971031899834,-0.31552564641802,0.9484019878710216
16215.45161916667,0.0055389404296875,-0.015472412109375,-0.9648590087890624,16215.44665016667,-0.6602828910461894,-0.0092911179009408,0.0615387581221044,0.0689781904220581,0.5993654727935791,-1.948552370071411,0.0380209647119045,0.0179513208568096,0.0215320587158203,0.0275975554417564,-0.014365627935264,-0.3241551195527004,0.9454920835193048
16215.46155816667,0.0465850830078125,-0.1037750244140625,-0.9751739501953124,16215.45658916667,-0.6810552136989202,-0.0016125268705066,0.0623179200328705,0.0741875991225242,0.6899195909500122,-2.168827295303345,0.0167613830417394,0.0442874617874622,0.0420639514923095,0.0290958583061597,-0.0111645190058749,-0.333845904490068,0.942112342619051
16215.47149716667,0.0465850830078125,-0.1166839599609375,-0.940582275390625,16215.46652816667,-0.7002902714784299,0.0061176425357526,0.0625133310861994,-0.0548127219080925,0.5875714421272278,-1.621742486953735,0.0095651317387819,0.0089905522763729,0.0256922245025634,0.030403952271844,-0.0078484957286766,-0.3427752017825308,0.9388924665054784
16215.48143616667,-0.019500732421875,-0.072662353515625,-0.97711181640625,16215.47646716667,-0.714768703685169,0.012154157559679,0.0606590128310885,-0.2705260813236237,0.4775506556034088,-1.386980295181274,0.0555717535316944,-0.0681928992271423,0.0380346179008483,0.0305331823714638,-0.004917754387572,-0.3494850824733387,0.9364313238524532
16215.49137516667,0.024200439453125,-0.072662353515625,-0.9949188232421876,16215.48640616667,-0.7289060485325805,0.0179573806400346,0.0581718759000712,-0.1493530869483948,0.5240696668624878,-1.429343223571777,-0.0146911684423685,-0.0294769145548343,0.0499053597450256,0.0303695683495851,-0.0019801654983638,-0.3560292321275335,0.9339790176562124
16215.50131416667,0.050262451171875,-0.0010833740234375,-0.963714599609375,16215.49634516667,-0.7421926185361463,0.0235064236257588,0.0567466314856628,-0.1174018085002899,0.403118759393692,-1.245617628097534,-0.0280135348439216,-0.0209815949201583,-0.0016413331031799,0.030696919565495,0.0006613817755345,-0.3621556047619446,0.9316118311315236
16215.51125316667,0.0619354248046875,0.029388427734375,-0.968292236328125,16215.50628416667,-0.7551791077591051,0.027481637402358,0.0551147464340164,-0.1111500337719917,0.2896268367767334,-1.441781401634216,0.017348101362586,0.0143916346132755,0.019787311553955,0.0306743566788463,0.0026099771740984,-0.3681541940359402,0.929254951807565
16215.52119216667,0.093109130859375,-0.01922607421875,-0.975433349609375,16215.51622316667,-0.7710199660338778,0.0314485340462323,0.054251644482809,0.0250592045485973,0.3190717995166779,-1.684922933578491,0.0199640057981014,0.0813856571912765,0.0386996865272522,0.0310391858813078,0.0043665939765238,-0.3754517664129192,0.9263117733192991
16215.53113116667,0.0945281982421875,-0.02093505859375,-0.9380340576171876,16215.52616216667,-0.7874704427144772,0.0351750327676542,0.0537459275749846,-0.0479100756347179,0.2549324035644531,-1.634705781936646,0.0434657745063304,0.0604644268751144,0.0198957920074462,0.0315543885557917,0.0059283403014414,-0.3830062859164804,0.9231875798722706
16215.54107016667,0.062530517578125,-0.070220947265625,-0.9661102294921876,16215.53610116667,-0.8046850209177662,0.0388467843537635,0.0517239369636976,-0.2253154814243317,0.318261593580246,-1.871912717819214,0.0616788044571876,0.0271189473569393,0.0394130945205688,0.0313923452973203,0.0077414027201738,-0.3909079671655336,0.9198616429412376
16215.55100916667,0.0717620849609375,-0.1705322265625,-0.991485595703125,16215.54604016667,-0.8232644540533297,0.0431563274231354,0.0478179050765765,-0.4404903650283813,0.336936354637146,-1.807720065116882,0.0327883474528789,0.0187774524092674,0.0593740940093994,0.0305350346919454,0.0102055605397565,-0.3994255367710263,0.916200156577066
16215.56094816667,0.037689208984375,-0.12451171875,-0.990264892578125,16215.55597916667,-0.8394562063340324,0.0466596162687987,0.0411729561013753,-0.7270534634590149,0.2150128334760666,-1.541089177131653,0.0212526880204677,-0.0922157764434814,0.0071440339088439,0.0282974288830696,0.0129119637439415,-0.4068764389588082,0.9129534725577484
16215.57088716667,0.0364837646484375,-0.04779052734375,-1.017379760742188,16215.56591816667,-0.8551437676492621,0.0490877991086127,0.0330698655454004,-0.7108315825462341,0.1830505579710007,-1.738159894943237,0.0080723986029624,-0.1282826215028763,0.0148661732673645,0.0252161848942751,0.0154750075799082,-0.4141117015530573,0.909745107872005
16215.58082616667,0.0850830078125,-0.0212860107421875,-1.002395629882812,16215.57585716667,-0.8727380008411075,0.0517872247106873,0.0255152391667168,-0.6521787047386169,0.2467962652444839,-1.780250072479248,-0.0228928476572036,-0.0537569597363472,-0.0112634897232055,0.0224998033416427,0.0180725757751218,-0.422176100297053,0.9060543606486906
16215.59076516667,0.0314178466796875,0.02337646484375,-1.00299072265625,16215.58579616667,-0.8881559913443665,0.0541760208108863,0.0183740996021471,-0.5995610356330872,0.1509933620691299,-1.417749881744385,0.0091378279030323,-0.0137467067688703,-0.012347400188446,0.0199285961631435,0.0205111567125362,-0.4292250532250649,0.9027447321407168
16215.60070416667,0.01849365234375,0.0427398681640625,-1.032073974609375,16215.59573516667,-0.902118457100912,0.0556025785147095,0.0124734250922479,-0.4114224910736084,0.1179312914609909,-1.500525712966919,0.0163603387773037,0.0078038908541202,-0.0009364485740661,0.0177280635734787,0.0222994243041017,-0.4355861191372422,0.8996961483329624
16215.61064316667,0.087432861328125,0.0347137451171875,-1.008651733398438,16215.60567416667,-0.9171267325107412,0.0572997237551078,0.0085687327263871,-0.2255336046218872,0.1839127987623215,-1.51163637638092,-0.0518799051642417,0.0522087439894676,-0.0201714634895324,0.016520463455196,0.0237905411457781,-0.44236457575718,0.8963675030000554
16215.62058216667,0.0908203125,0.065277099609375,-0.9698486328125,16215.61561316667,-0.9321760600459532,0.0589419568464684,0.0061540748811003,-0.0748074725270271,0.1316815614700317,-1.614715576171875,-0.0031968653202056,0.0382432490587234,-0.0302588939666748,0.0159897527922155,0.0249412632667709,-0.4491167672954495,0.8929817573907683
16215.630522375,0.0932464599609375,-0.0355682373046875,-0.9905242919921876,16215.62555216667,-0.9506938394987664,0.0610501435411172,0.0053687311726216,0.13242506980896,0.2957920432090759,-2.10138463973999,0.0361108593642711,0.0581183210015296,0.0124353766441345,0.0163531310236507,0.0259086487955039,-0.4573592381498993,0.8887541195962478
16215.640461375,0.1178741455078125,-0.1611785888671875,-1.022918701171875,16215.635492375,-0.9718318637261836,0.0644605847903281,0.0053329059548621,0.0787914097309112,0.3328062295913696,-2.044750928878784,0.0215682536363601,0.0436171628534793,0.0304864645004272,0.0174060579862187,0.0272498872083512,-0.4666982700832802,0.8838253653294064
16215.650400375,0.063995361328125,-0.1516571044921875,-1.015304565429688,16215.645431375,-0.9890788515833576,0.0664504123172027,0.00412407039142,-0.0869746580719947,0.0228396244347095,-1.45372486114502,0.0422721579670906,-0.1070057228207588,-0.0210601091384887,0.0175805960017926,0.0282608099923152,-0.4743030560355613,0.8797322852061352
16215.660339375,0.0518035888671875,-0.076446533203125,-1.020828247070312,16215.655370375,-1.002692819196952,0.0658725847076129,0.0013390804144234,-0.2854144871234894,-0.1100214868783951,-1.363151073455811,0.0346084609627723,-0.1774634271860123,-0.0216704010963439,0.0164133619766659,0.0285561896976302,-0.4803265849067159,0.876471079050004
16215.670278375,0.0961761474609375,-0.0373687744140625,-1.009597778320312,16215.665309375,-1.015252545204026,0.0648275406553765,-0.0025496996647084,-0.2987475991249084,-0.0982963517308235,-1.158776640892029,-0.0232627540826797,-0.108247347176075,-0.0152111053466796,0.0146401936517167,0.028940823358086,-0.4858845977031742,0.8734209510938592
16215.680217375,0.097198486328125,0.101898193359375,-0.9605560302734376,16215.675248375,-1.026039323358953,0.0638484123066257,-0.0055716930766204,-0.164506196975708,-0.0834345817565918,-1.138309478759766,0.0149770900607109,-0.0685752257704734,-0.0281608700752258,0.0132400367712493,0.0291762803552208,-0.4906359008813061,0.8707754118185245
16215.690156375,0.1055755615234375,0.1251068115234375,-0.962249755859375,16215.685187375,-1.03919320049119,0.0635259055403675,-0.0069435110115732,0.0642865002155304,0.0375652089715004,-1.522826552391052,0.0347849652171134,0.0214683916419744,0.0158421397209167,0.0127564883180206,0.0292890205216488,-0.4963722891436074,0.8675217096017147
16215.700095375,0.077301025390625,0.063201904296875,-0.980499267578125,16215.695126375,-1.05511565694241,0.0642491451160469,-0.006302554232326,0.2543427348136902,0.1195945739746094,-1.628653645515442,0.0369010791182518,0.1304009556770325,0.0419690608978271,0.0134480228465206,0.029337583738452,-0.5032499154706631,0.8635381137751564
16215.710034375,0.040069580078125,-0.0276336669921875,-0.9961090087890624,16215.705065375,-1.071877614606904,0.0655343215897842,-0.0042514878716581,0.3634753525257111,0.1851160079240799,-1.751460194587708,0.0335732400417327,0.0903529971837997,0.027904212474823,0.0149027558114406,0.0292526830772795,-0.5104330408990488,0.8592906310511166
16215.719973375,0.086273193359375,-0.1547088623046875,-1.034622192382812,16215.715004375,-1.089978916588068,0.0680377680898864,-0.0020666020206653,0.2773079872131348,0.2870900332927704,-1.772951006889343,-0.0179515555500984,0.0248041097074747,0.0071904063224792,0.0167491881151948,0.0296203980174243,-0.5181389019437436,0.854619348150822
16215.729912375,0.065643310546875,-0.102691650390625,-1.009719848632812,16215.724943375,-1.105936259211396,0.0700738913686977,-0.0017006318874779,0.0408810451626777,0.1037371754646301,-1.441156506538391,-0.0103240609169006,-0.1033394411206245,-0.0182942152023315,0.0176750197704113,0.0302555813685952,-0.5249181373566949,0.8504311779013871
16215.739851375,0.0751495361328125,0.029510498046875,-0.9659423828125,16215.734882375,-1.120438550302602,0.0702843446682072,-0.0021638585289308,0.1303438097238541,-0.0201775822788476,-1.549293041229248,0.0117133781313896,-0.1557283252477646,-0.0304710865020752,0.0177537324926589,0.030338698210279,-0.531075775331029,0.8465948926865889
16215.749790375,0.1405487060546875,0.06976318359375,-0.9539947509765624,16215.744821375,-1.137772470497176,0.0705524224952063,-0.0006923789842384,0.377709686756134,0.093937799334526,-1.869918704032898,-0.0065595433115959,-0.0314846336841583,0.0117179155349731,0.0187076584100171,0.0299004687167859,-0.5383691439738226,0.8419707019334185
16215.759729375,0.1356964111328125,0.0521087646484375,-0.94561767578125,16215.754760375,-1.154797435721612,0.0713930601528074,0.0019644842420957,0.3975598216056824,0.0174038801342248,-1.472842454910278,0.0246760174632072,0.0652884468436241,0.0411518812179565,0.0203031494801744,0.0293674230586687,-0.5454688371888934,0.837370360343247
16215.769668375,0.0260772705078125,0.0712890625,-0.9731597900390624,16215.764699375,-1.170397985805117,0.0713008331206946,0.0052227717184043,0.4844332039356232,-0.0079942205920815,-1.697788238525391,0.099185973405838,0.0581707283854484,0.0475554466247558,0.0218632829735372,0.0282703480961055,-0.5519348146563541,0.8331211440667171
16215.779607375,0.0923004150390625,-0.001251220703125,-1.006362915039062,16215.774638375,-1.188710742066378,0.0724461524328432,0.0091722940930797,0.5334923267364502,0.2136835753917694,-1.811691164970398,-0.0092541351914405,0.082170195877552,0.0461326241493225,0.0240765251760169,0.0274378572281928,-0.5594639786073551,0.8280503670787807
16215.789547375,0.0352783203125,-0.0016632080078125,-0.98760986328125,16215.784577375,-1.204296220741351,0.0740751501816263,0.0122502654289758,0.3343616724014282,0.0365682542324066,-1.300313353538513,-0.0221524983644485,0.0483369827270507,-0.0012301802635192,0.0260177710198441,0.0270489249847538,-0.565828095609798,0.823668607620075
16215.799485375,0.0543670654296875,-0.015625,-1.001052856445312,16215.794516375,-1.2174995089038,0.0743587541252558,0.0148732106728045,0.4159809052944183,0.0438280329108238,-1.353954672813416,0.0055519714951515,-0.0001725200563669,-0.0003254413604736,0.0273517028671784,0.0262431510035162,-0.5712045045798856,0.819932029011296
16215.809424375,0.08038330078125,-0.0486297607421875,-1.003555297851562,16215.804455375,-1.231042311994835,0.0752319327854277,0.0183935511493474,0.4471028745174408,0.0474794209003448,-1.261474609375,-0.0525805056095123,0.0256251655519008,0.0097285509109497,0.0292163183563611,0.0253976260682554,-0.5766688809703295,0.8160603029109847
16215.819364375,0.079864501953125,-0.0247650146484375,-0.974884033203125,16215.814394375,-1.242755665662376,0.074670292292509,0.0214406757238151,0.3835223019123077,-0.2032830268144608,-1.084888577461243,0.0094616562128067,-0.0202174745500087,-0.0160925388336181,0.0304388005171711,0.0241111168453949,-0.5813915252211186,0.8126967914917038
16215.829303375,0.123016357421875,0.0028228759765625,-0.9642791748046876,16215.824333375,-1.255071331970401,0.0730050653187643,0.0250368251475438,0.5092833638191223,-0.1492668241262436,-1.350006222724915,-0.0002092272043228,-0.0183923169970512,0.0091850161552429,0.0315524409594499,0.0221939612005778,-0.5863448281362615,0.8091424421852513
16215.839242375,0.092926025390625,-0.0073699951171875,-0.9727783203125,16215.834272375,-1.26919863123952,0.072156261126639,0.0286739453013137,0.4022080898284912,-0.1286536902189255,-1.396293759346008,0.0283083021640777,0.0262285992503166,0.0328307747840881,0.0329200481782339,0.020550844238603,-0.5919917599776374,0.8050091058871041
16215.849181375,0.02313232421875,0.002593994140625,-0.975433349609375,16215.844211375,-1.283693582680847,0.0707968219503302,0.0316464754697765,0.4412753283977509,-0.2138011455535889,-1.52009117603302,0.0538857579231262,0.029947455972433,0.0292983651161193,0.0338509005655243,0.0188776978234006,-0.5977772409428973,0.800724777598123
16215.859120375,0.0343780517578125,-0.041351318359375,-0.9951171875,16215.854150375,-1.30051549072291,0.0692909765214865,0.0354945610935783,0.5504699945449829,-0.2109819203615189,-1.778934478759766,-0.0188684314489364,0.0342206172645092,0.0201806426048278,0.0350829262036224,0.0168284055480374,-0.6044437425896045,0.7956969873187649
16215.869059375,0.0529327392578125,-0.06781005859375,-1.008377075195312,16215.864089375,-1.321386632938877,0.0686959170542641,0.0389865420636802,0.4512142539024353,-0.005710526369512,-2.393096446990967,-0.0439009964466095,0.0202846378087997,0.0147207975387573,0.036451166243059,0.0151550137936941,-0.6126574311750881,0.7893619891647162
16215.878998375,0.006988525390625,-0.028228759765625,-0.977935791015625,16215.874028375,-1.346205345236501,0.0693210133342142,0.040684217648723,0.239325687289238,-0.0866732895374298,-2.520466089248657,-0.0216007456183433,-0.0188820697367191,0.0006027221679687,0.0374937491235526,0.0144166285293264,-0.6223604657299179,0.7816992936431424
16215.888937375,0.105621337890625,-0.024749755859375,-1.023086547851562,16215.883967375,-1.370067292461442,0.0692203442274094,0.0421355700452815,0.4291081428527832,-0.0664608255028724,-2.149278402328491,-0.0397762805223465,-0.0067508071660995,0.0069431662559509,0.0381924621166331,0.0134701429094021,-0.6316153326862016,0.7742234659075575
16215.898876375,0.0607757568359375,0.016632080078125,-1.007659912109375,16215.893906375,-1.386425430698048,0.0701871188652048,0.047346133583778,0.847916841506958,0.0674210786819458,-1.071516513824463,-0.0334145426750183,0.0188860520720481,-0.001459002494812,0.0406106544325693,0.0118641171110613,-0.6378004712968428,0.769038648215323
16215.908815375,0.0303802490234375,-0.0238189697265625,-1.013275146484375,16215.903845375,-1.396863159982406,0.0714921996993225,0.0567269742210167,1.159198522567749,0.1004758328199387,-0.98371422290802,0.0544160306453704,0.0513559691607952,-0.0307702422142028,0.0446766618648042,0.0091352508671552,-0.6415718502254437,0.7657062073523162
16215.918754375,0.1475372314453125,-0.054840087890625,-1.002517700195312,16215.913784375,-1.406930112604289,0.0737965249302871,0.0662041035777924,0.7569555044174194,0.2256526499986649,-0.8157845735549927,-0.0678459852933883,0.0765317305922508,-0.003655195236206,0.0490716859603008,0.0067229695833891,-0.6451385470833921,0.7624584773813573
16215.928693375,0.0557861328125,-0.0542755126953125,-0.996246337890625,16215.923723375,-1.412588015813203,0.0753392013468207,0.0690430210848856,-0.0510954819619655,-0.0393011756241321,-0.3084955513477325,0.0264586359262466,0.0165284499526023,-0.0189911127090454,0.050667104877177,0.0062493721422816,-0.6471830957743826,0.7606232523877187
16215.938632375,0.033966064453125,-0.0686798095703125,-1.04180908203125,16215.933662375,-1.414687915585331,0.0746137926044879,0.0682159369833813,0.0141357174143195,-0.0686585307121276,-0.1455162316560745,0.0472871363162994,0.0173970460891723,0.0056405663490295,0.0501250251563725,0.0061893213890168,-0.6480206180562361,0.7599463404864768
16215.948571375,0.0290985107421875,-0.05645751953125,-1.011978149414062,16215.943601375,-1.415937811905529,0.0744725107736787,0.0686994540614327,0.031938150525093,-0.0073443418368697,-0.126227080821991,-0.0468538925051689,0.0054282546043396,-0.031231939792633,0.0502662988060916,0.0059470926372092,-0.648486749801471,0.7595411937402538
16215.958510375,0.030609130859375,-0.042022705078125,-1.011337280273438,16215.953540375,-1.418095594946426,0.0747651450880574,0.0684962327118316,0.0058903046883642,0.0579944550991058,-0.3203526139259338,-0.0381738916039466,0.0024484172463417,-0.0366719365119934,0.0502907538101818,0.0060700618216601,-0.6493036209380683,0.7588403902965267
16215.968449375,0.0765838623046875,-0.072296142578125,-1.0155029296875,16215.963479375,-1.421677056624225,0.0760891275592605,0.0689598422280296,0.1279008984565735,0.131253719329834,-0.3401158154010773,-0.051756665110588,0.0235560685396194,-0.0093526244163513,0.0509074977392113,0.0063302948133153,-0.6506161409687037,0.7576721175991745
16215.978388375,0.08990478515625,-0.077880859375,-1.001510620117188,16215.973418375,-1.424502657241592,0.0772147976011972,0.0698577549090478,0.0826868116855621,0.0485175549983978,-0.2324154376983643,-0.0260923877358436,0.0168834701180458,-0.0236913561820983,0.0516221396298599,0.0063908178159293,-0.651633896176793,0.7567479523723395
16215.988327375,0.087432861328125,-0.0604248046875,-0.99566650390625,16215.983357375,-1.426943950092711,0.0777112132181424,0.0702608823964931,0.0541806071996688,0.0313994921743869,-0.260746955871582,0.0131347030401229,-0.0112483277916908,-0.0126646757125854,0.0519438772179337,0.0063834957020036,-0.6525337543270068,0.7559503206973964
16215.998266375,0.092193603515625,-0.0638427734375,-0.99945068359375,16215.993296375,-1.429537704176409,0.078288688356657,0.0706763578208389,0.064791701734066,0.0428537465631961,-0.2221276462078094,0.0104722529649734,0.002075046300888,-0.0026527047157287,0.0522972922011518,0.0063979636994578,-0.6534876242696434,0.7551013597533802
16216.008205375,0.066192626953125,-0.086639404296875,-1.012985229492188,16216.003235375,-1.430366198272676,0.0784497392001724,0.0708967493848898,-0.0219112336635589,-0.0545386187732219,0.0896215811371803,0.0104811564087867,0.0117095634341239,-0.0019788742065429,0.0524355666338207,0.0063648039536534,-0.6537903415972985,0.7548299000546408
16216.018144375,0.0247650146484375,-0.07220458984375,-1.018386840820312,16216.013174375,-1.428866987233896,0.0771914599014342,0.0701168208128786,-0.1416291147470474,-0.1342238634824753,0.1178691983222961,0.0114230588078498,-0.0043119564652442,-0.0121567249298095,0.0517259457897807,0.0061844583121108,-0.6532775481222184,0.7553241986286114
16216.028083375,0.074951171875,-0.0811614990234375,-1.013519287109375,16216.023113375,-1.428037574646809,0.0764063033828243,0.0685884325723138,-0.193574070930481,-0.0314295701682567,0.0835522413253784,-0.0415455475449562,-0.0150224640965461,-0.0247016549110412,0.0508909352759437,0.0064098294072224,-0.653023892447425,0.7555983271504607
16216.038022375,0.089141845703125,-0.06158447265625,-0.9723358154296876,16216.033052375,-1.4259856440292,0.0754477549389615,0.0653640927770409,-0.4977611005306244,-0.1511847376823425,0.2513886690139771,-0.0289047956466674,-0.0083671361207962,-0.0223539471626281,0.0493551431890953,0.007154299448919,-0.6523538883270218,0.7562720288824747
16216.047961375,0.088470458984375,-0.0067138671875,-0.9665679931640624,16216.042991375,-1.424479686291325,0.0738807888767696,0.0599848208614009,-0.5335473418235779,-0.0993058532476425,-0.0923022776842117,0.0148659273982048,-0.0181303732097148,-0.0012409090995788,0.0468077027983001,0.0083566004890065,-0.6519528976883643,0.7567672650026782
16216.057900375,0.113037109375,-0.0608062744140625,-0.9946136474609376,16216.052930375,-1.426474337374094,0.0740329239944741,0.0563040633878679,-0.1715428084135056,0.0787757337093353,-0.2879391610622406,0.0108687132596969,0.0296019501984119,0.0362078547477722,0.0454767174361522,0.0095717263249984,-0.6527902162292861,0.7561119389947255
16216.067839375,0.0962982177734375,-0.092529296875,-1.0018310546875,16216.062869375,-1.428549680842885,0.0746443318646567,0.0546418415451948,-0.1899388581514359,-0.0054476056247949,-0.1405004411935806,0.0282279327511787,0.028445828706026,0.0162349343299865,0.0450597067787752,0.0102999653670354,-0.6535990393823267,0.7554282355358573
16216.077778375,0.080810546875,-0.071990966796875,-0.99090576171875,16216.072808375,-1.429510910859044,0.074016976734841,0.0518657998893527,-0.3298882246017456,-0.114955723285675,-0.1222769543528557,0.0352961719036102,-0.0294105112552642,-0.0048419833183288,0.0438131963990037,0.0109512853812942,-0.6540391193337212,0.7551113916798422
16216.087717375,0.1042938232421875,-0.039154052734375,-0.99224853515625,16216.082747375,-1.430459697837319,0.072960687771281,0.0485108734382727,-0.2977688908576965,-0.0808728486299514,-0.088906742632389,0.0085038915276527,-0.0408025905489921,-0.0033454298973083,0.0422086191556024,0.0116320026215791,-0.6544940666057736,0.7547984693239345
16216.097656375,0.030303955078125,-0.033111572265625,-1.017837524414062,16216.092686375,-1.430665223190067,0.0728912029413139,0.0465595230885763,-0.1078194826841354,0.0430701300501823,0.0074149947613477,0.0257477536797523,-0.0060696117579936,0.0112631916999816,0.0414518098827675,0.012241391320919,-0.6546151192234115,0.7547258237330432
16216.107595375,0.04443359375,-0.0707550048828125,-1.03021240234375,16216.102626375,-1.430246117010516,0.0733459420786913,0.0456833704650218,-0.0721706748008728,0.0486694239079952,0.0775376260280609,-0.0006786957383155,0.0126474536955356,-0.0088255405426025,0.0412678520984697,0.0127089681705261,-0.6544662610592383,0.7548571193161151
16216.117534375,0.069793701171875,-0.0742645263671875,-1.023147583007812,16216.112564375,-1.428616860338052,0.0736504469355718,0.0450642969665364,-0.0966517850756645,0.0128784049302339,0.2344912886619568,-0.0517196059226989,-0.002283725887537,-0.0328829884529113,0.0411235515008823,0.0130603747014503,-0.6538580277753588,0.7553859679256425
16216.127473375,0.0814971923828125,-0.04901123046875,-0.997528076171875,16216.122504375,-1.425729628752633,0.0734024775873656,0.0440475552351267,-0.1362013220787048,-0.0429339930415153,0.3189084529876709,-0.0091479942202568,-0.0407292693853378,-0.0304392576217651,0.0406397733913659,0.0133584365834791,-0.6527934675952693,0.7563269716860406
16216.137412375,0.1082763671875,-0.037567138671875,-0.9889373779296876,16216.132443375,-1.423154283910058,0.0729458622976552,0.0430939178736236,-0.0760991051793098,-0.0063917627558112,0.1526326388120651,-0.0001358911395072,-0.0130565129220485,-0.016662061214447,0.0401131835351985,0.0135492718175116,-0.6518482237625466,0.7571665112330824
16216.147351375,0.09130859375,-0.0450286865234375,-0.993988037109375,16216.142382375,-1.422458079646892,0.0733112673999236,0.0426845635013714,-0.0292935147881507,0.0687630772590637,0.0061663715168833,0.0218375995755195,-0.0018382929265499,0.007239282131195,0.0400726926706491,0.0138352228871004,-0.6515858062343599,0.7573894923908027
16216.157290375,0.0771636962890625,-0.071502685546875,-1.014251708984375,16216.152321375,-1.422751164039275,0.0738806872592056,0.0423748176315141,-0.0342006534337997,0.049637321382761,-0.0721595883369445,0.0359024330973625,0.005863107740879,0.0087059736251831,0.0401431426471411,0.0141460697716552,-0.6516918411425249,0.757288664033151
16216.167229375,0.08660888671875,-0.0794525146484375,-1.016525268554688,16216.162260375,-1.423373972508934,0.0744417403085482,0.0420192880309245,-0.0477082096040248,0.0514812618494033,-0.0492035411298275,-0.0042389780282974,-0.0141454264521598,-0.0065793991088867,0.0401960272074466,0.0144620502167343,-0.6519238001957653,0.757080211687857
16216.177168375,0.0740814208984375,-0.068206787109375,-1.015411376953125,16216.172199375,-1.423686900761656,0.0749670267785139,0.0412510885891993,-0.106353685259819,0.0447029769420623,-0.0176655910909175,0.0168722197413444,-0.0417989455163478,-0.0219522714614868,0.0400791813269823,0.0149054774069387,-0.6520477837089991,0.7569710186667403
16216.187107375,0.0730133056640625,-0.044647216796875,-1.013885498046875,16216.182138375,-1.423279061025645,0.0754030370996441,0.0399880239782541,-0.1491805016994476,0.0547358095645904,0.0774051323533058,-0.0014340877532958,-0.0312048904597759,-0.0163643956184387,0.0397407564393026,0.015491128770513,-0.6519110503995529,0.7570948465813429
16216.197046375,0.0544281005859375,-0.0313262939453125,-1.004837036132812,16216.192077375,-1.421984706480305,0.0758265294152971,0.0384488613629634,-0.1883702576160431,0.0558806955814361,0.1490225791931152,0.0042734369635581,-0.0224431902170181,-0.0217683315277099,0.0392864347627781,0.0161794414671564,-0.6514444437910372,0.7575057861961042
16216.206985375,0.07012939453125,-0.04351806640625,-1.001968383789062,16216.202016375,-1.420409987929587,0.0762717645606041,0.0364635890232643,-0.238775908946991,0.0497498661279678,0.1335369795560837,-0.0147305354475975,0.0032371170818805,-0.0118708610534668,0.0386670758427823,0.0170262556707019,-0.6508798667834186,0.7580040905283462
16216.216924375,0.071044921875,-0.0290069580078125,-1.0020751953125,16216.211955375,-1.419013440890507,0.0767228985477222,0.0345252640086502,-0.1642747670412064,0.0563811436295509,0.105363667011261,-0.0170163810253143,-0.0012024268507957,-0.0034748911857604,0.0380676704037897,0.0178556423161702,-0.6503810651309171,0.7584434266340364
16216.226863375,0.0968170166015625,-0.0395965576171875,-0.9957122802734376,16216.221894375,-1.418148555970963,0.0774240020051199,0.0336302943069523,-0.0374523736536502,0.0741088762879371,0.0661669895052909,-0.0016498416662216,-0.0080478116869926,-0.0087321996688842,0.0379486879088564,0.0184294096906296,-0.6500577375340255,0.758712873643165
16216.236802375,0.118927001953125,-0.046722412109375,-0.9865875244140624,16216.231833375,-1.417481040061849,0.0780859508496903,0.0336291309602873,0.0157075151801109,0.0514850541949272,0.0645741522312164,-0.0022941604256629,0.0058670490980148,-0.0014898777008056,0.03815716027324,0.0186936382752653,-0.6497919045616428,0.7589236450773833
16216.246741375,0.1038818359375,-0.023651123046875,-0.97760009765625,16216.241772375,-1.417078897991429,0.0785433851957932,0.0339748007680641,0.0309202894568443,0.059679802507162,0.0080557512119412,0.0356268361210823,-0.014173224568367,0.0057869553565979,0.0384330220698285,0.0187624669554909,-0.6496234950586735,0.7590522499905045
16216.256680375,0.098114013671875,-0.05328369140625,-0.9964141845703124,16216.251711375,-1.41744417613078,0.0792877624536147,0.0342788587308421,0.0071332016959786,0.0769799649715423,-0.0530925579369068,0.037129059433937,0.0001687444746494,0.0134084224700927,0.0387935269279825,0.0189389755171147,-0.6497415091153339,0.7589284564039275
16216.266619375,0.0922698974609375,-0.07513427734375,-1.012161254882812,16216.261650375,-1.417282469856352,0.0796774705840986,0.0340661616755102,-0.0624866224825382,-0.0012218691408634,0.0893294364213943,0.0135011076927185,0.0052051916718482,0.0133236646652221,0.0388379711598831,0.0191592022307424,-0.6496769801849753,0.7589757730726581
16216.276558375,0.06494140625,-0.0157318115234375,-0.998748779296875,16216.271589375,-1.416324404953835,0.0794421244364575,0.0334577621971253,-0.0786352381110191,-0.0136298025026917,0.0488065108656883,0.0254221707582473,-0.0416675098240375,-0.0121651291847229,0.0385216705370317,0.0192862914636111,-0.6493304050277746,0.759285233494084
16216.286497375,0.0857086181640625,-0.00811767578125,-0.991302490234375,16216.281528375,-1.416180577315169,0.0796801066939445,0.032870533784235,-0.0359452925622463,0.0657505393028259,-0.0112689435482025,-0.0108119547367095,-0.0140714310109615,-0.0150332450866699,0.0383748453061962,0.0195703465299607,-0.6492832599878322,0.7593256877686756
16216.296436375,0.0728759765625,-0.0286865234375,-1.00567626953125,16216.291467375,-1.416149574620219,0.0804639268497029,0.0326163437569104,-0.0253048986196517,0.0869429111480712,0.0257724300026893,-0.0015379786491394,0.0270868726074695,0.0079226493835449,0.0385325955230753,0.0199511765070813,-0.6492616319841461,0.7593263195703305
16216.306375375,0.06689453125,-0.0489044189453125,-1.01336669921875,16216.301406375,-1.415525329294798,0.0811803165669215,0.0324371499733156,-0.0150780947878956,0.0656463503837585,0.0811976045370101,-0.003579631447792,0.0187900960445404,-0.0019713044166564,0.0386908695153221,0.0202934992359555,-0.6490144680173227,0.7595204243898482
16216.316314375,0.080596923828125,-0.04913330078125,-1.009613037109375,16216.311345375,-1.414866781809163,0.0818612010349045,0.0323667558940893,-0.018527153879404,0.0789264664053916,0.0574944093823432,-0.011048249900341,-0.0132169052958488,-0.0141856670379638,0.038878336911053,0.0205877530122254,-0.6487525949191443,0.7597267011830818
16216.326253375,0.094818115234375,-0.044464111328125,-1.008026123046875,16216.321284375,-1.413732340571911,0.0825462985060067,0.0321840169197526,-0.0493521764874458,0.0424590334296226,0.1812670826911926,-0.0138826519250869,-0.0154747515916824,-0.0151057839393615,0.039019365558334,0.0209294979235901,-0.648312034183964,0.7600860625549392
16216.336192375,0.1027984619140625,-0.0321502685546875,-0.9909210205078124,16216.331223375,-1.411385296429546,0.0825378728252519,0.0317826846351673,-0.0604018978774547,-0.0346352159976959,0.2562744915485382,0.0105234906077384,-0.0169134698808193,-0.0140394568443298,0.0388395421647711,0.0211021869665416,-0.6474281484333477,0.7608435947081658
16216.346131375,0.1130828857421875,-0.0133819580078125,-0.9764251708984376,16216.341162375,-1.409350861107038,0.0823100456463197,0.0316566473476356,0.0071063037030398,0.0062425732612609,0.1388490498065948,0.0107500925660133,-0.0087691806256771,-0.0038390755653381,0.0386964590472928,0.0210957527274921,-0.6466609114507541,0.7615032359582742
16216.356070375,0.1150054931640625,-0.034332275390625,-0.98455810546875,16216.351101375,-1.408288619376201,0.0824831805286621,0.0320804497761198,0.0358724370598793,0.0140267256647348,0.1004148423671722,0.0302931070327758,0.0108347050845623,0.0144132375717163,0.0389024542664842,0.0210450988897831,-0.6462441845385206,0.76184773031395
16216.366010375,0.0957489013671875,-0.039276123046875,-0.995819091796875,16216.361040375,-1.407193850805214,0.0824508478397696,0.0325962927388327,0.0421580336987972,-0.0011898763477802,0.108893945813179,0.0326765477657318,0.0134865082800388,0.017359435558319,0.0390768499654645,0.0208872360312975,-0.6458168852748846,0.7622055023627546
16216.375949375,0.0927581787109375,-0.041168212890625,-0.9972381591796876,16216.370979375,-1.406420971177452,0.0826251297837605,0.0329577276428361,0.0243742391467094,0.0372312813997268,0.0678804665803909,0.027468517422676,-0.0111919231712818,0.0041649937629699,0.039262658190874,0.0208519336139658,-0.6455112791527984,0.7624557390326642
16216.385888375,0.080413818359375,-0.0498046875,-1.00701904296875,16216.380918375,-1.405300447199596,0.0828843834880474,0.0330909220390718,-0.0046129366382956,0.0174074098467826,0.1637488007545471,0.0070690587162971,-0.002010341733694,-0.0005300045013427,0.039385331087425,0.0209297794834493,-0.6450760928949826,0.7628155244071301
16216.395827375,0.082183837890625,-0.0253143310546875,-0.9957275390625,16216.390857375,-1.403523010643555,0.0827679291445807,0.0332039104488725,-0.0022573703899979,-0.01102289929986,0.1714464128017426,0.0079482942819595,-0.0155235081911087,-0.006780207157135,0.0393722744384727,0.0208838585020407,-0.6443978195588466,0.7633904338927521
16216.405766375,0.081298828125,-0.006103515625,-0.9872894287109376,16216.400796375,-1.402311543503793,0.0829346332112288,0.0334189324786024,0.0290222540497779,0.0580394566059112,0.0770021975040435,-0.0046530589461326,-0.0095865651965141,-0.0124011635780334,0.0394953034426017,0.0209020251709735,-0.643927437776918,0.7637805267430036
16216.415705375,0.0966796875,-0.04119873046875,-0.997344970703125,16216.410735375,-1.40148859350169,0.083590376595498,0.0340477939039113,0.07277612388134,0.0650536864995956,0.1244243085384369,-0.0009098723530769,0.0258014611899852,0.0100604891777038,0.0399376743625621,0.020966077461425,-0.6435866726258871,0.7640428867190487
16216.425644375,0.10406494140625,-0.0636444091796875,-1.004959106445312,16216.420674375,-1.399629872245458,0.0839370764195441,0.0348842874340897,0.0618300028145313,0.0108138546347618,0.2648337483406067,0.0046524181962013,0.0131944641470909,0.0028616189956665,0.0403490319326792,0.0208663983089414,-0.6428513330295678,0.7646428384073715
16216.435583375,0.10894775390625,-0.073394775390625,-1.00225830078125,16216.430613375,-1.396367406634025,0.08372085575311,0.0356844336921391,0.0492513626813888,-0.0368961431086063,0.3957246541976929,0.0171839520335197,-0.019025906920433,-0.0068529844284057,0.0405515282082409,0.0205922718033127,-0.6415901624926368,0.7656981332478561
16216.445522375,0.112213134765625,-0.0810546875,-1.00738525390625,16216.440552375,-1.391774934213248,0.0830639018679199,0.0364744217434713,0.031574361026287,-0.0810702294111251,0.5545495748519897,0.0238220170140266,-0.0327933132648468,-0.0081236958503723,0.0405966165493721,0.0201801497222629,-0.6398263702091856,0.7671811591166137
16216.455461375,0.0982208251953125,-0.0739288330078125,-1.017318725585938,16216.450491375,-1.384928578598715,0.0816959327527519,0.0370063716201748,-0.0402729287743568,-0.1536389738321304,0.8281155824661255,0.0299772843718528,-0.0417221747338771,-0.0097091197967529,0.0402958427466485,0.0196229681579266,-0.6372125336317191,0.7693836877187469
16216.465400375,0.043426513671875,-0.0267791748046875,-1.016128540039062,16216.460430375,-1.376264515473131,0.079619330510518,0.0372153143114227,-0.0424942709505558,-0.1954727023839951,0.8571747541427612,0.0317106544971466,-0.0452060028910636,-0.0151649117469787,0.0396328494985129,0.0189292820192695,-0.6339105274617989,0.77215829256173
16216.475339375,0.07928466796875,-0.055908203125,-1.014907836914062,16216.470369375,-1.367901500836763,0.0773648075213905,0.0378875346075816,0.05406129732728,-0.1970740556716919,0.8774493932723999,-0.0099256485700607,-0.010354571044445,-0.0206744074821472,0.0391025046701132,0.0180090576797903,-0.630706334439156,0.7748266371654875
16216.485278375,0.06884765625,-0.07110595703125,-1.01593017578125,16216.480308375,-1.358176263572656,0.0746678438517228,0.0395721474176509,0.1163694113492966,-0.27835813164711,1.082186222076416,-0.0211037769913673,0.0089984536170959,-0.0183528065681457,0.0388235129352209,0.0166209582134194,-0.6269485654397404,0.7779150757253506
16216.495217375,0.099395751953125,-0.061676025390625,-0.9990234375,16216.490247375,-1.347164984995916,0.0712058686562689,0.041758712096813,0.1716537028551102,-0.3176410794258118,1.172740817070007,0.011710524559021,-0.0320144221186637,-0.0197305083274841,0.0385068371368613,0.0147998890241183,-0.6226780085482606,0.7813899046713918
16216.505156375,0.13812255859375,-0.103668212890625,-0.9993438720703124,16216.500186375,-1.334281128573839,0.0674388936182595,0.0445015685237977,0.1917997151613235,-0.3497432470321655,1.484840035438538,0.0046851783990859,-0.0171128623187542,-0.0158951878547668,0.0383232337972342,0.0127196870024345,-0.617648107562917,0.7854173150042049
16216.515095375,0.105438232421875,-0.12811279296875,-1.006881713867188,16216.510125375,-1.31738203043907,0.0622738144552242,0.0475419953879,0.2050129920244217,-0.535090982913971,1.924145460128784,0.0668193101882934,-0.0296396203339099,0.0067300200462341,0.0378369676321711,0.0100705666323417,-0.6110275489553362,0.7906404642174347
16216.525034375,0.0393218994140625,-0.05078125,-1.006881713867188,16216.520064375,-1.297826711442038,0.0558935007741941,0.0510864376370396,0.2781242430210114,-0.5241233110427856,1.979955315589905,0.0716499090194702,-0.0761483162641525,-0.0099900960922241,0.037222270205956,0.0068275619798943,-0.6033193335418567,0.7966013275448041
16216.534973375,0.02734375,-0.0461883544921875,-0.995941162109375,16216.530003375,-1.279550267517146,0.0498210338559041,0.0544441900496538,0.1743655949831009,-0.5297519564628601,1.752883195877075,0.030946597456932,-0.0433762893080711,-0.0104110836982727,0.0366938205236617,0.0037295396641567,-0.5960648473115762,0.8020886242652439
16216.544912375,0.0955047607421875,-0.0940093994140625,-1.00030517578125,16216.539942375,-1.260953160922377,0.04330801310703,0.0561441442432469,-0.0007404340431094,-0.5612044334411621,2.061988115310669,-0.0359630584716796,0.032173603773117,-0.0026186108589172,0.0354264823325005,0.0009394248349493,-0.5886684445255274,0.8075974342237286
16216.554851375,0.0371246337890625,-0.071380615234375,-0.9861907958984376,16216.549881375,-1.238647410975461,0.0363666693062008,0.0562209563071637,-0.1577937006950378,-0.583935022354126,2.352442979812622,0.0389399006962776,-0.0262213870882988,0.0021696686744689,0.0334331495121062,-0.0015133522855746,-0.579743215769322,0.8141116403780624
16216.564790375,0.081390380859375,-0.110931396484375,-0.99334716796875,16216.559820375,-1.215105166158327,0.0293671722964977,0.0551585335244127,-0.1981680244207382,-0.5562405586242676,2.40753436088562,0.0410705171525478,-0.0253900699317455,0.0023363828659057,0.0310173580043517,-0.0036892931377011,-0.5702486741206162,0.8208780885031819
16216.574729375,0.0662994384765625,-0.1283721923828125,-0.9955291748046876,16216.569759375,-1.188329919874143,0.022297258426183,0.053437428385204,-0.2957763373851776,-0.5973363518714905,2.986123561859131,0.0182942934334278,-0.0283598639070987,0.0094479918479919,0.0283743870365053,-0.0057204355840069,-0.5593356444527343,0.8284357406862176
16216.584668375,-0.0453643798828125,0.003448486328125,-1.014739990234375,16216.579698375,-1.158095690495983,0.014348819770404,0.0504309377090853,-0.4073028564453125,-0.6640543937683105,2.958871603012085,0.0888651236891746,-0.0900628641247749,0.0112600922584533,0.0250269165849081,-0.0077938668896549,-0.546887802454296,0.8367954987954785
16216.594607375,0.0184478759765625,0.004364013671875,-0.988983154296875,16216.589637375,-1.130385588074876,0.0071306527479608,0.0471472238148568,-0.2916942238807678,-0.4964990019798279,2.647249221801758,-0.0102812182158231,-0.016606219112873,-0.0154646039009094,0.0218145781012224,-0.0096142508483856,-0.5353554602794979,0.8442903469614215
16216.604546375,0.0252532958984375,-0.011749267578125,-0.9864654541015624,16216.599576375,-1.104166460785376,0.0014241942663339,0.0443440211089536,-0.333331435918808,-0.4282031953334808,2.615717649459839,-0.0296210180968046,0.0671261101961135,0.000419795513153,0.0192498234006938,-0.0110212679978333,-0.5243196081145393,0.8512326337813955
16216.614485375,-0.008392333984375,0.00640869140625,-0.9928741455078124,16216.609515375,-1.079664266236573,-0.0034887742003412,0.0405326257384194,-0.4050809741020203,-0.3366972506046295,2.280248165130615,0.0468971766531467,0.0226839892566204,0.0160793662071228,0.0164867083856959,-0.0119120119783727,-0.513915990886984,0.8575993656110146
16216.624424375,0.0624237060546875,-0.118804931640625,-0.993865966796875,16216.619454375,-1.057227184089306,-0.0069596239249282,0.0364782411908244,-0.3939889073371887,-0.2114742398262024,2.376720905303955,0.0021942146122455,0.0472428388893604,0.0053682923316955,0.0139939407321789,-0.0122024288487688,-0.5043045270955786,0.8633262043951596
16216.63436379167,0.0219573974609375,-0.136627197265625,-1.011428833007812,16216.629394375,-1.02967244165014,-0.0102359045945392,0.0314095507815825,-0.6028944849967957,-0.260248988866806,3.159648180007935,0.035667099058628,-0.012144211679697,0.0070685744285583,0.011148558907936,-0.0121864512036579,-0.4923950818743404,0.8702151261472273
16216.64430279167,-0.0888671875,0.0202484130859375,-1.03515625,16216.63933379167,-0.9969708575941786,-0.0139972940031322,0.024340020339312,-0.6991254091262817,-0.3038963973522186,3.327183246612549,0.0782016962766647,-0.1374513506889343,0.0065944194793701,0.0073427388492101,-0.0119646055105965,-0.4781235288907781,0.8781803723748461
16216.65424179167,-0.033172607421875,0.08062744140625,-1.001739501953125,16216.64927279167,-0.9653351871758578,-0.0174564301858692,0.017609239471562,-0.5550034046173096,-0.237746387720108,3.083562850952148,-0.0243409685790538,-0.043472621589899,-0.0345023274421691,0.0037474443583483,-0.0118171050257785,-0.4641760628314328,0.8856562259459901
16216.66418079167,0.0131683349609375,0.012908935546875,-0.9653167724609376,16216.65921179167,-0.9334315907899624,-0.0202443537072683,0.0108151933092557,-0.733167827129364,-0.2674989998340607,3.403227090835571,-0.0654820725321769,0.0806697010993957,-0.0212746858596801,0.0002746009558762,-0.0114723742083737,-0.4499749936847856,0.8929674801712011
16216.67411979167,-0.0469818115234375,0.006378173828125,-1.011077880859375,16216.66915079167,-0.8996295376940132,-0.0232319355456362,0.0025367090259861,-0.7283040881156921,-0.2427675426006317,3.342252492904663,0.0364744141697883,0.0603827536106109,0.0273911356925964,-0.0039083802997625,-0.0110116986669388,-0.4347823369739515,0.9004596937438482
16216.68405879167,-0.0410003662109375,0.0387420654296875,-1.015701293945312,16216.67908979167,-0.8682593770372464,-0.0251735570077585,-0.0043358084092618,-0.4976790845394135,-0.1857456862926483,3.024508714675903,0.0055020973086357,-0.0105003667995333,0.0077456831932067,-0.0072607562230371,-0.0105070632354658,-0.4205619370354263,0.9071738640818012
16216.69399779167,-0.03216552734375,0.0780792236328125,-0.9888458251953124,16216.68902879167,-0.8395064487140746,-0.02699091706906,-0.009382318886809,-0.3720801472663879,-0.2147451043128967,2.776914834976196,-0.023810040205717,0.0119648426771163,-0.0204887986183166,-0.0097831589485845,-0.0104117710005397,-0.4074357260456635,0.9131220439318616
16216.70393679167,-0.0400543212890625,0.098480224609375,-1.02215576171875,16216.69896779167,-0.8136862340531285,-0.0285157891568356,-0.0130302107713835,-0.2040309756994247,-0.1524290889501572,2.423826456069946,-0.0066162124276161,0.0466014817357063,0.0022552013397216,-0.011624367214041,-0.0105155410943019,-0.3955781755031105,0.918298552386407
16216.71387579167,-0.023956298828125,0.0584564208984375,-1.00604248046875,16216.70890679167,-0.7913365034750939,-0.0294936199781572,-0.0151049538040858,-0.1020087376236916,-0.1045955270528793,2.126168012619019,-0.0034882482141256,0.0761126354336738,-0.0009456276893615,-0.0126515620751022,-0.0106960100701265,-0.3852692308649059,0.9226554961364796
16216.72381479167,-0.0182037353515625,0.009521484375,-0.9926910400390624,16216.71884579167,-0.7693869505588193,-0.0303833487977318,-0.0173163842114926,-0.248433843255043,-0.1588031947612762,2.32987380027771,-0.0098480340093374,0.0700257644057273,-0.0241861939430236,-0.0137249923586557,-0.0108315110123834,-0.3750957557615224,0.9268211511939328
16216.73375379167,-0.045745849609375,0.0413665771484375,-1.022689819335938,16216.72878479167,-0.7462996398161169,-0.031289063493221,-0.020808553482593,-0.2580052316188812,-0.0968490242958068,2.290626287460327,0.021084327250719,0.0050718318670988,0.0073965787887573,-0.0153896106969489,-0.0107742006602109,-0.3643344060328335,0.9310786479836398
16216.74369279167,-0.0063934326171875,0.0570068359375,-0.985595703125,16216.73872379167,-0.7246247169628609,-0.0313225213298257,-0.0234398963016654,-0.13859523832798,-0.0016952790319919,2.098684787750244,-0.0059378966689109,-0.004577912390232,-0.0135824680328369,-0.0165078202715124,-0.0104895394911057,-0.3541979950824327,0.9349658871266032
16216.75363179167,0.041351318359375,0.023712158203125,-0.961151123046875,16216.74866279167,-0.7039212231989281,-0.0305891894334221,-0.0257246985157999,-0.2276154011487961,0.0465843677520752,2.116270780563354,-0.0029950235038995,0.0326277241110801,-0.0086720585823059,-0.0173441254511937,-0.0099217564168933,-0.3444854175912013,0.938578951215567
16216.76357079167,0.014373779296875,-0.00994873046875,-0.9701690673828124,16216.75860179167,-0.6818791537279477,-0.0291605349258379,-0.0290886333320324,-0.2852491140365601,0.1209024712443352,2.328895330429077,0.0518033802509307,0.011213906109333,0.0295475125312805,-0.0185797750916618,-0.0088765657671024,-0.3341019994957627,0.9423119455980672
16216.77350979167,0.0028076171875,-0.052093505859375,-0.9687652587890624,16216.76854079167,-0.6577335624454255,-0.0270733617633444,-0.032524356883087,-0.2894230782985687,0.1192220225930214,2.56961727142334,0.0606861189007759,-0.024294164031744,0.0381368994712829,-0.0197598239411194,-0.0075576553267935,-0.3226901409780984,0.9462681650466946
16216.78344879167,-0.01263427734375,-0.0352783203125,-0.9948272705078124,16216.77847979167,-0.6305215734099372,-0.0252874153825174,-0.0362105043042113,-0.2912721335887909,0.0487062409520149,2.89811897277832,0.027923185378313,-0.0659267380833625,0.0219589471817016,-0.0211302462785774,-0.0064052399430594,-0.3097712081454038,0.950554691096911
16216.79338779167,-0.06201171875,0.096221923828125,-1.02972412109375,16216.78841879167,-0.6024748394890215,-0.0239141072014459,-0.0392736490251208,-0.1839504688978195,0.0248943865299224,2.687192440032959,0.0256634168326854,-0.1028164327144623,0.0330618619918823,-0.0222969485795448,-0.0055906581792091,-0.2963995139392153,0.9547873851867544
16216.80332679167,-0.0210723876953125,0.1314849853515625,-1.010162353515625,16216.79835779167,-0.5775989480301639,-0.0228942963229002,-0.0412897905593982,-0.1305287927389145,-0.0235170200467109,2.373238563537598,-0.0169679038226604,-0.0103180035948753,-0.0231325626373291,-0.0230466154742249,-0.0050916067312911,-0.2844957575801972,0.9583867208085192
16216.81326579167,0.010772705078125,0.087646484375,-0.991851806640625,16216.80829679167,-0.5538287366572991,-0.0221811665695726,-0.0433713067143472,-0.1570083349943161,-0.0181347709149122,2.432631254196167,-0.0306369122117757,0.0905381366610527,-0.0291554927825927,-0.023887858865892,-0.0047375573524527,-0.2730764773760948,0.9616839622385353
16216.82320479167,-0.0190887451171875,0.10723876953125,-1.004959106445312,16216.81823579167,-0.5298052167452858,-0.0209548909669059,-0.0453278554286892,-0.1430554986000061,0.0430046468973159,2.373774766921997,0.0235716141760349,0.0586152523756027,0.008641242980957,-0.0246126936656443,-0.004176260142352,-0.2615045281961634,0.964879294942468
16216.83314379167,-0.029296875,0.0963287353515625,-1.00823974609375,16216.82817479167,-0.5072631949576992,-0.0194592805745676,-0.0470718783795662,-0.1157644912600517,0.0471341460943222,2.175546169281006,0.0203672926872968,0.0468022860586643,-0.0006406307220458,-0.0252204425777934,-0.0035107710398926,-0.2506180097370541,0.967751095398211
16216.84308279167,0.00714111328125,0.0424957275390625,-0.9746856689453124,16216.83811379167,-0.4846711832670804,-0.0180717856813493,-0.0485066518010219,-0.1022649332880974,0.0018826778978109,2.430872678756714,-0.0162522047758102,0.0659685134887695,-0.0121272802352905,-0.0257090601906141,-0.0029498885075483,-0.2396775369975419,0.9705075924069066
16216.85302279167,-0.01519775390625,0.0543212890625,-0.9904632568359376,16216.84805279167,-0.459334570504115,-0.0168399297993673,-0.0496951483140467,-0.018896535038948,0.0117677990347147,2.603646039962769,0.0092499908059835,0.0131304524838924,0.0041322708129882,-0.0261080048143208,-0.0025403912421571,-0.2273715186461877,0.9734547286003058
16216.86296179167,-0.006134033203125,0.06622314453125,-0.9930572509765624,16216.85799179167,-0.4341873220721387,-0.0152559070951951,-0.0499404097187538,0.0096917003393173,0.0467323139309883,2.439812421798706,0.0151752643287181,-0.0087362080812454,0.0236309170722961,-0.0260233238401227,-0.0020688358398569,-0.2151330132075406,0.9762358463765064
16216.87290079167,0.0234527587890625,0.0522308349609375,-0.983184814453125,16216.86793079167,-0.4098081985030799,-0.013811545961669,-0.0506196627693854,-0.0484693385660648,-0.0080758119001984,2.490525960922241,-0.0066991336643695,0.0133667699992656,0.0007905960083007,-0.026181804357555,-0.001609887210866,-0.2032321358665095,0.9787791727530516
16216.88283979167,-0.03271484375,0.1058197021484375,-1.012359619140625,16216.87786979167,-0.3847139888863769,-0.0127596930005704,-0.0510080892242654,0.0357395447790622,-0.0370450131595134,2.495743274688721,0.0268571339547634,0.0064480826258659,0.0132970213890075,-0.0262496838351415,-0.0013850442186262,-0.1909471967173699,0.9812482699822288
16216.89277879167,-0.0648040771484375,0.1009521484375,-1.0113525390625,16216.88780879167,-0.3614464566199725,-0.0120700148569211,-0.0509223082218379,0.0058389054611325,-0.0587481781840324,2.192142486572266,0.0204006358981132,0.0219298675656318,0.0042462348937988,-0.0261277122836957,-0.0013589231307171,-0.1795284100499762,0.98340477573115
16216.90271779167,-0.02886962890625,0.053619384765625,-0.987152099609375,16216.89774779167,-0.3389319478850172,-0.0113476511371445,-0.0517900595549013,-0.112418495118618,-0.0302025526762008,2.420922756195068,-0.0568440742790699,0.0686859339475631,-0.0205548405647277,-0.0264774197798659,-0.0012238488197256,-0.168451946353525,0.9853533794701984
16216.91265679167,-0.0649566650390625,0.06365966796875,-1.0272216796875,16216.90768679167,-0.3130183866209481,-0.0103694396806289,-0.0528758091971247,-0.0261477902531623,-0.0602331571280956,2.729516267776489,-0.0301268026232719,0.0200705453753471,0.0044691562652587,-0.0269192342858486,-0.0009991685124029,-0.1556790806115689,0.9874402914236918
16216.92259579167,-0.0178375244140625,0.0493621826171875,-0.991455078125,16216.91762579167,-0.2863544001126083,-0.0098096816364804,-0.053008774113986,0.0181365832686424,-0.1012711673974991,2.620074033737183,-0.0330204144120216,0.0002997107803821,-0.0077393054962158,-0.0269294132604795,-0.0010715448491856,-0.1425080319160409,0.9894266804602772
16216.93253479167,0.0497283935546875,0.0189666748046875,-0.9496307373046876,16216.92756479167,-0.2601774142722547,-0.0092679907263216,-0.053115994583851,0.0313703641295433,-0.0739175826311111,2.672370672225952,-0.0502239726483821,0.0107822380959987,-0.023853063583374,-0.0269311308340054,-0.001148486111334,-0.1295529433048638,0.9912060849495766
16216.94247379167,0.0078582763671875,0.07550048828125,-1.009292602539062,16216.93750379167,-0.2336701548939744,-0.0088648967139359,-0.0524295224188838,0.1519913226366043,-0.1369068622589111,2.583330869674683,0.0382257662713527,-0.0237953029572963,0.0399379730224609,-0.0265493143504975,-0.0013452430679711,-0.1164128641812507,0.9928450887714604
16216.95241279167,-0.022705078125,0.0826873779296875,-1.023590087890625,16216.94744279167,-0.2098166391336334,-0.0096068128817277,-0.0508733403347223,0.20474773645401,-0.266404926776886,2.237677335739136,0.0481989718973636,-0.0109039172530174,0.0213347077369689,-0.0257966343799234,-0.002112126002365,-0.1045594190307254,0.994181713133674
16216.96235179167,-0.01019287109375,0.0574188232421875,-0.977386474609375,16216.95738179167,-0.1871972390813478,-0.01164754971661,-0.0485554737205425,0.3084834814071655,-0.3364056050777435,2.360999584197998,-0.0050137815997004,0.0427721701562404,-0.0258129835128784,-0.0247128220257978,-0.0035277570731965,-0.0932921279688642,0.9953258374798616
16216.97229079167,-0.055419921875,0.0967864990234375,-0.9894561767578124,16216.96732079167,-0.1631221256476822,-0.0131862995181126,-0.0457800860185103,0.271246075630188,-0.1898478418588638,2.424428224563599,0.000293681398034,0.0164764784276485,-0.006337821483612,-0.0233484655001395,-0.0047047996793785,-0.0812971492154581,0.9964053138473972
16216.98222979167,-0.023712158203125,0.0597381591796875,-1.013153076171875,16216.97725979167,-0.1391400078694925,-0.0133318922930668,-0.0440106497327163,0.1753496378660202,-0.057871863245964,2.417294979095459,-0.0180382262915372,0.0370276980102062,0.0305896401405334,-0.0224130934973664,-0.0051186433360879,-0.0693492021602703,0.9973275472237496
16216.99216879167,0.0248870849609375,0.066070556640625,-1.00152587890625,16216.98719879167,-0.1137434634513206,-0.01266376051066,-0.0425899622610221,0.173930436372757,-0.0551447868347168,2.69580602645874,-0.0422491878271102,0.0411020815372467,-0.0148418545722961,-0.0216183469197624,-0.005109853712183,-0.0566924460936083,0.9981444952997324
16217.00210779167,-0.0164337158203125,0.08697509765625,-1.005218505859375,16216.99713779167,-0.0871479879266899,-0.012116535453942,-0.0416056342659103,0.0804393738508224,-0.037956379354,2.573340892791748,0.0266015976667404,0.0064410082995891,-0.0063708424568176,-0.0210450312632638,-0.0051450775783686,-0.0434240819030658,0.9988218096229932
16217.01204679167,-0.00299072265625,0.0487823486328125,-1.018325805664062,16217.00707679167,-0.0628778403164639,-0.0113467519523352,-0.0413604308560447,0.0453759282827377,-0.014407112263143,2.341672658920288,0.0159602127969265,0.04844930768013,-0.0047494769096374,-0.0208464865360425,-0.0050193297323702,-0.0313092545899779,0.9992797177384632
16217.02198579167,-0.031829833984375,0.0747528076171875,-1.039505004882812,16217.01701579167,-0.0389072116769093,-0.011157637074826,-0.0412031258723427,0.0818772092461586,-0.1761031746864319,2.473198652267456,-0.0075746038928627,0.0253215692937374,-0.0133926272392272,-0.0207043845697869,-0.0051758354709434,-0.0193330460154538,0.99958532080988
16217.03192479167,-0.1044464111328125,0.1239166259765625,-1.06683349609375,16217.02695479167,-0.0164415278345547,-0.0130759867449144,-0.0399428773696544,0.2250479459762573,-0.375853568315506,1.95255720615387,0.0156896896660327,0.0024413727223873,-0.0210399031639099,-0.0200227456133771,-0.0063722580543778,-0.0080882973687842,0.9997464731422736
16217.04186379167,-0.0031280517578125,0.0074310302734375,-0.9989013671875,16217.03689379167,0.0007509185997731,-0.0166121633182679,-0.0377556953024136,0.2329612672328949,-0.4459344744682312,1.618196487426758,-0.0678425803780555,0.0836674273014068,-0.06389981508255,-0.0188729569420957,-0.0083115932448672,0.0005321693049707,0.9997871459939104
16217.05180279167,0.0573272705078125,-0.0045318603515625,-0.961578369140625,16217.04683279167,0.018408944293889,-0.019935261175859,-0.0357432683015378,0.2549350261688232,-0.3258605301380157,1.912959337234497,-0.0501471534371376,0.0355686321854591,-0.0408610701560974,-0.0177773102344967,-0.010129932213201,0.0093805338186321,0.9997465632867848
16217.06174179167,0.0371246337890625,0.015411376953125,-0.9737091064453124,16217.05677279167,0.0370540029807728,-0.0216211101632575,-0.0338063334039577,0.1941694021224976,-0.1582807898521423,1.804636001586914,0.0706182941794395,-0.0572831965982914,0.0304297804832458,-0.0166982298072735,-0.0111200587003691,0.0187049011065521,0.9996237803906616
16217.07168079167,0.072113037109375,0.0079803466796875,-0.9683837890625,16217.06671179167,0.0553132262575262,-0.0217944849226197,-0.032518551687164,0.1458503305912018,0.0055406298488378,1.905652642250061,0.0605995878577232,-0.012050811201334,0.0272185802459716,-0.0159500806976175,-0.0113409927432208,0.0278248936926512,0.9994211816957248
16217.08161979167,0.018157958984375,0.091888427734375,-1.022689819335938,16217.07665079167,0.0744614002209821,-0.0208505954134974,-0.0314210242638439,0.164078876376152,0.0263817645609378,1.866369366645813,0.078898474574089,-0.0319041609764099,0.0321718454360961,-0.0153101297178294,-0.0110013213780834,0.0373791477275459,0.9991232870038436
16217.09155879167,0.0556640625,0.0212249755859375,-0.9707489013671876,16217.08658979167,0.0916691115199904,-0.0204919514416358,-0.0302939794453717,0.1104260310530663,-0.0478972606360912,1.630535483360291,0.0720252990722656,0.0243828706443309,0.0059078335762023,-0.0146603156128829,-0.0109278111816648,0.0459658711712321,0.9987756784372122
16217.10149779167,0.070037841796875,-0.0623779296875,-0.9208831787109376,16217.09652879167,0.108174331868537,-0.0202733912774269,-0.0301981273747756,-0.0136759402230382,-0.0267100185155868,1.697880744934082,0.0366964675486087,0.0449407137930393,-0.0164083838462829,-0.0145277107064971,-0.0109367401941141,0.0542046840670524,0.9983642064730612
16217.11143679167,-0.0691070556640625,-0.030609130859375,-1.004074096679688,16217.10646779167,0.1243825467105336,-0.0207675144650981,-0.030462511506222,0.0451431684195995,-0.197895348072052,1.484572172164917,0.1087995916604996,-0.0634625852108001,0.0714640617370605,-0.014555126292991,-0.0113088476431736,0.0622984752589775,0.997887337232224
16217.12137579167,-0.101776123046875,-0.0160980224609375,-1.002685546875,16217.11640679167,0.1371946153781477,-0.0231976399485439,-0.0301427676790719,0.0459860600531101,-0.3495698571205139,1.154509544372559,0.0259163361042738,-0.0872823894023895,0.0426422953605651,-0.0142394413734748,-0.0126029044799932,0.0687055155610646,0.9974557459795448
16217.13131479167,-0.1050567626953125,-0.0293121337890625,-0.999603271484375,16217.12634579167,0.1490711243975114,-0.0263795155018742,-0.029870766637985,0.0864455997943878,-0.3595170378684998,1.259416460990906,-0.076830506324768,-0.0428210608661174,-0.0205540060997009,-0.0139100079555032,-0.014263336469873,0.074648217434726,0.9970109127702308
16217.14125379167,-0.115081787109375,-0.0370635986328125,-1.028533935546875,16217.13628479167,0.1628141254984566,-0.0299638843730293,-0.0289737541617322,0.1657705157995224,-0.454190731048584,1.535096406936646,-0.0644745677709579,-0.0567559786140918,0.0098127722740173,-0.0132186589124225,-0.0161080585981647,0.0815158234821639,0.9964542309782192
16217.15119279167,-0.066314697265625,-0.0123291015625,-1.0123291015625,16217.14622379167,0.1804113239980332,-0.0341057166277082,-0.0274225495839564,0.2593926191329956,-0.4513169229030609,1.978099703788757,-0.0870227292180061,-0.0570364519953727,-0.0222890377044677,-0.012117154701865,-0.018216046209117,0.0902946631823445,0.995674721114128
16217.16113179167,-0.067138671875,0.076629638671875,-1.034408569335938,16217.15616279167,0.2005486753384579,-0.0374606677491598,-0.0255524299561777,0.2714652717113495,-0.3397404551506042,1.991039514541626,-0.0513512231409549,-0.0650699362158775,-0.0181328654289245,-0.0108346983124389,-0.0199123587983258,0.1003187381036952,0.9946970080243958
16217.17107079167,-0.0362091064453125,0.0697174072265625,-1.023635864257812,16217.16610179167,0.219882385550168,-0.0400639194034105,-0.0232957370605155,0.3200679421424866,-0.2717094719409943,1.916800975799561,-0.0220762081444263,0.0113285388797521,-0.0197197794914245,-0.0093773530053378,-0.0211860524752719,0.1099222933424173,0.9936701269153564
16217.18100979167,0.01055908203125,0.04083251953125,-1.0050048828125,16217.17604079167,0.2394056379368862,-0.0417446235336316,-0.0210766880111626,0.2856418192386627,-0.1369867622852325,1.957666635513306,-0.0196171104907989,0.0652438178658485,-0.0380498766899108,-0.007968267893463,-0.0219784588784486,0.1196028802077389,0.9925465494506452
16217.19094879167,-0.0005645751953125,0.0581817626953125,-1.005218505859375,16217.18597979167,0.2576075905452514,-0.0422327341845104,-0.0192075339713796,0.2341096252202988,-0.0442927703261375,1.640949130058289,0.0344304032623767,0.0287367384880781,-0.0103227496147155,-0.0068099148286644,-0.022172211212704,0.1286144718312649,0.99142344851474
16217.20088779167,-0.040130615234375,0.0188140869140625,-1.0089111328125,16217.19591879167,0.271419976561957,-0.042180112805479,-0.0179143668102893,0.1332692950963974,-0.000344056636095,1.142995715141296,0.053971130400896,0.0305637419223785,-0.0081145763397216,-0.0060197064950814,-0.022105323554929,0.1354454495491505,0.9905198591857268
16217.21082679167,-0.03143310546875,-0.020263671875,-0.9922637939453124,16217.20585779167,0.2811366388205635,-0.0418260223983817,-0.0174327694317755,0.0521289072930812,0.035678394138813,0.8179358243942261,0.0170424468815326,0.0303738769143819,-0.0074656009674072,-0.0056987041116987,-0.0219253738998952,0.1402503621582462,0.989856903450804
16217.22076579167,-0.0367431640625,0.0029449462890625,-1.001846313476562,16217.21579679167,0.2877686345433622,-0.0410198142125184,-0.0174776845706084,-0.0042957542464137,0.1041848808526993,0.5101318955421448,0.002443078905344,-0.0256555285304784,-0.00276380777359,-0.0057060468280252,-0.0215485386811152,0.1435300997332523,0.9893948731947216
16217.23070479167,-0.0447845458984375,0.0251922607421875,-1.0087890625,16217.22573579167,0.2918511969466046,-0.0397092458537525,-0.0179352332653687,-0.0556758530437946,0.1487717926502228,0.3548797369003296,0.0080609433352947,-0.030644865706563,0.0049561262130737,-0.0059837186037132,-0.0209452124207158,0.1455498838783707,0.98911112370038
16217.24064379167,-0.1031341552734375,0.051025390625,-1.03155517578125,16217.23567479167,0.2953940959548045,-0.0378164233931139,-0.018501975397237,-0.0247666724026203,0.2185993045568466,0.3495674133300781,0.0013019032776355,-0.0013042874634265,-0.0097665786743164,-0.0063662426162867,-0.0200615550014758,0.1473010502435517,0.9888677138782312
16217.25058279167,-0.1457061767578125,0.051055908203125,-1.0731201171875,16217.24561379167,0.2981095217574904,-0.0358683760016582,-0.0186260833624168,0.0311421304941177,0.1381289660930634,0.1926728636026382,-0.0334357097744941,0.0153562948107719,-0.0114519000053405,-0.0065451331545917,-0.0191163889737551,0.148638283433597,0.9886851494207766
16217.26052279167,-0.0941925048828125,-0.0228118896484375,-1.004074096679688,16217.25555279167,0.3001879266698705,-0.0347832394204733,-0.0181977128411029,0.0500058345496654,0.1018185913562775,0.2807514667510986,-0.1006055176258087,0.0440286099910736,-0.0635755062103271,-0.0063947253985936,-0.0185548455397568,0.1496586990788957,0.9885428690770812
16217.27046179167,-0.0762176513671875,-0.03857421875,-1.00445556640625,16217.26549179167,0.3045375469028893,-0.0332464743859589,-0.018016720157219,0.0285490117967128,0.1791554689407349,0.5680466294288635,-0.0919634252786636,-0.000895407050848,-0.0447974801063537,-0.0063815666759305,-0.0177956659960329,0.151801949262219,0.9882300482884724
16217.28040079167,-0.06048583984375,-0.013427734375,-1.0069580078125,16217.27543079167,0.3098976896017093,-0.0313557599874518,-0.0181186428870043,-0.036929327994585,0.1852926909923553,0.4796524345874786,-0.0450552962720394,-0.0643365457653999,0.0101476311683654,-0.0065302013156935,-0.0168867104954339,0.154444584455798,0.9878355169981128
16217.29033979167,-0.03656005859375,-0.0298614501953125,-0.9889068603515624,16217.28536979167,0.3142769148646308,-0.0291818574724578,-0.0192543995143606,-0.1476113796234131,0.2345776855945587,0.4071297645568848,-0.0494104698300361,-0.0363735929131507,-0.0201117396354675,-0.0072242403421095,-0.0159163786822868,0.1566073912116681,0.987506233973968
16217.30027879167,-0.056610107421875,0.0065460205078125,-1.016159057617188,16217.29530879167,0.3170623791206248,-0.0268478659101479,-0.0209251943791229,-0.178369551897049,0.2168511748313904,0.130655437707901,-0.010591059923172,-0.046253278851509,0.0120245218276977,-0.0082112494586517,-0.0149060055572403,0.1579837954187237,0.987295098341749
16217.31021779167,-0.0259857177734375,0.024993896484375,-1.022003173828125,16217.30524779167,0.3169033428165127,-0.0251321998519643,-0.0226433812044036,-0.1545382589101791,0.1328561455011368,-0.119953878223896,-0.0252919383347034,-0.0362065359950065,-0.0035322308540344,-0.009196120690722,-0.0141938235104484,0.1579073700018997,0.987309117641223
16217.32015679167,-0.0158538818359375,0.055267333984375,-1.022933959960938,16217.31518679167,0.3155622903994093,-0.0241280006746701,-0.0237842761707287,-0.0774136409163475,0.083847589790821,-0.1288632154464722,-0.022786695510149,-0.004983227699995,-0.0238892436027526,-0.0098478831010514,-0.013781414226104,0.1572464404904888,0.9874140940915856
16217.33009579167,-0.0438079833984375,0.058868408203125,-1.018142700195312,16217.32512579167,0.3143136450559251,-0.0233169243991108,-0.0240754800772135,0.0070634270086884,0.0918863415718078,-0.1262386739253998,0.0117876548320055,0.014592595398426,-0.0211609005928039,-0.0100637942014927,-0.0133975523933345,0.1566273298386727,0.9875156538617146
16217.34003479167,-0.0496978759765625,0.027587890625,-1.000961303710938,16217.33506479167,0.3135844069939308,-0.0222699508087451,-0.0237852256937857,0.05155685916543,0.1227528303861618,-0.0030371129978448,-0.0111244302242994,0.0402733907103538,-0.026318073272705,-0.0100071505047959,-0.0128542603306144,0.1562606436623074,0.9875814830973558
16217.34997379167,-0.0626068115234375,0.0136566162109375,-1.010879516601562,16217.34500379167,0.3141405217234604,-0.020984820138372,-0.0231798037241695,0.0731878504157066,0.1308717429637909,0.0861337780952453,-0.0254853833466768,0.0200046226382255,-0.0044713020324707,-0.009805204495619,-0.0121751728246624,0.1565261977115006,0.9875500815389808
16217.35991279167,-0.0384979248046875,0.003875732421875,-0.994903564453125,16217.35494279167,0.3149185849068533,-0.0195564913881101,-0.0225847914620603,0.0411614775657653,0.1514420956373215,0.0797018408775329,-0.0390129908919334,-0.0037688072770833,-0.0085333585739135,-0.0096187274132659,-0.0114271413702582,0.1569010076198849,0.9875012942505168
16217.36985179167,-0.0311431884765625,0.0030059814453125,-1.004486083984375,16217.36488179167,0.3157775729205021,-0.0181187048210108,-0.0223143296808589,0.0173309780657291,0.1337461918592453,0.0748833864927291,-0.0334920361638069,-0.0149272475391626,-0.0024119615554809,-0.0095933786356001,-0.0107001610147774,0.1573171863307748,0.9874435364165524
16217.37979079167,-0.020751953125,0.005096435546875,-1.000656127929688,16217.37482079167,0.3159390532059062,-0.0168427428635353,-0.0222896490985996,-0.0194302313029766,0.1190260425209999,-0.0428797341883182,-0.0141375921666622,-0.0214943680912256,-0.0001766085624694,-0.0096807436104523,-0.010069031921899,0.1573906859208108,0.9874375638692112
16217.38972979167,-0.008056640625,-0.00054931640625,-0.99859619140625,16217.38475979167,0.3152799211818177,-0.0158560719104222,-0.0226419606243909,-0.048452828079462,0.0832736417651176,-0.0843731090426445,-0.0134760607033968,-0.01555997133255,-0.0032658576965332,-0.0099355031849007,-0.0096063113236056,0.1570615114737532,0.9874921359280328
16217.39966879167,-0.01763916015625,0.0140533447265625,-0.9998626708984376,16217.39469879167,0.3142257171664583,-0.0151718948701658,-0.0231936530046435,-0.0627814382314682,0.0621153265237808,-0.1269108504056931,0.0049285711720585,-0.0234509967267513,0.0008367300033569,-0.0102665422949431,-0.0093063676420684,0.1565391438521804,0.9875745574732976
16217.40960779167,-0.0219268798828125,0.023956298828125,-1.00128173828125,16217.40463779167,0.312940510733992,-0.0144640973239156,-0.0238371779738006,-0.0677130818367004,0.0900044813752174,-0.1197195202112198,0.0019777808338403,-0.0184638500213623,-0.0004191994667053,-0.0106455002942874,-0.0090003407917201,0.1559025643653929,0.9876740224865868
16217.41954679167,-0.030670166015625,0.0516510009765625,-1.010238647460938,16217.41457679167,0.3120742371942947,-0.0135910550793654,-0.0244717085959418,-0.0467494688928127,0.0887295305728912,-0.0658082216978073,-0.0076231639832258,-0.0049075223505496,-0.0003612041473388,-0.0110306497876907,-0.008613832640563,0.155471628246891,0.9877411293380456
16217.42948579167,-0.0146026611328125,0.06195068359375,-1.011199951171875,16217.42451579167,0.3112598139956635,-0.0128777528688478,-0.0247402320241796,-0.001793447881937,0.0637751743197441,-0.0927660688757896,-0.0114490669220686,0.0100523084402084,-0.0040968060493469,-0.0112220888460332,-0.0082778356220523,0.1550660387514407,0.9878056668930556
16217.43942479167,-0.0037841796875,0.0486297607421875,-0.996856689453125,16217.43445479167,0.3104676628613879,-0.0124501165682079,-0.0244834755456455,0.0420270040631294,0.044552244246006,-0.0657479017972946,-0.0162099562585353,0.0373933389782905,-0.0152697563171386,-0.0111316145892991,-0.0080423289327906,0.1546718312469164,0.9878704428140582
16217.44936379167,-0.0157928466796875,0.0181732177734375,-0.9942626953125,16217.44439479167,0.3096705926746967,-0.0120385422787954,-0.0240856394716987,0.0308513157069683,0.0549337789416313,-0.1007735282182693,0.0100816218182444,0.0319621972739696,-0.0029106736183166,-0.0109700442893603,-0.007803928354621,0.1542750090449097,0.9879362370941428
16217.45930279167,0.0069122314453125,-0.00537109375,-0.9768829345703124,16217.45433379167,0.3086798421116477,-0.0113425568427024,-0.0239464233208422,-0.0155041990801692,0.091883972287178,-0.0906171649694442,-0.0011273827403783,0.0128905586898326,0.0027160048484802,-0.0109586494007196,-0.0074439767909454,0.1537815064473488,0.9880160437909166
16217.46924179167,0.01043701171875,-0.002532958984375,-0.987762451171875,16217.46427279167,0.3080687678709636,-0.0104851165694291,-0.0243331826637068,-0.0697567909955978,0.0845104753971099,-0.0319855399429798,0.0045003620907664,-0.0218436233699321,0.014678955078125,-0.0112177972641516,-0.0070466794998159,0.1534755499409309,0.9880636498822328
16217.47918079167,-0.0058135986328125,0.0398712158203125,-1.010665893554688,16217.47421179167,0.3074206015826697,-0.009882542832082,-0.025032205496813,-0.0736780241131782,0.0346355289220809,-0.1123056784272194,0.0234138183295726,-0.0329947024583816,0.0225566029548645,-0.0116115878190926,-0.0067988251331476,0.1531529996740322,0.9881107892208264
16217.48911979167,-0.0029296875,0.0570220947265625,-0.9979705810546876,16217.48415079167,0.3058498034172346,-0.0097365474316728,-0.0256733633248803,-0.0691722258925437,0.016335355117917,-0.1829223185777664,0.0090770442038774,-0.0087180528789758,-0.0055648684501647,-0.0119448586925753,-0.0067663743224933,0.1523769662940258,0.9882270075341536
16217.49905879167,-0.0297393798828125,0.0593109130859375,-1.021224975585938,16217.49408979167,0.3041536762848918,-0.0097573836685359,-0.0261728724820303,-0.0269001312553882,-0.0122582064941525,-0.1584436148405075,0.005557706579566,0.0284565575420856,-0.0026330947875976,-0.0121958640490664,-0.0068043543924995,0.1515396604451942,0.9883524949693034
16217.50899779167,-0.0428009033203125,0.063507080078125,-1.017532348632812,16217.50402879167,0.3022931867854955,-0.0100247457313094,-0.0262239266590847,0.0104443095624446,-0.0229987353086471,-0.226864218711853,-0.002185913734138,0.0277799107134342,-0.0089237093925476,-0.0122072874481211,-0.0069289909661884,0.1506218955885959,0.9884917383584312
16217.51893679167,-0.0229034423828125,0.0147247314453125,-0.991851806640625,16217.51396779167,0.2998329060123069,-0.0101637167170214,-0.0262070046246405,-0.0130820544436574,0.0161971673369407,-0.2469544261693954,-0.0313133522868156,0.039561353623867,-0.0228254199028015,-0.0121970549688681,-0.0069814047476182,0.1494066216414304,0.9886759030959068
16217.52887579167,-0.0270233154296875,-0.0003204345703125,-0.9957427978515624,16217.52390679167,0.2976902578060404,-0.0096329973418087,-0.0266170501431717,-0.0612234808504581,0.098335176706314,-0.1939015984535217,-0.0240619834512472,0.019055625423789,-0.0064736008644104,-0.012446629677096,-0.0067363242554441,0.1483446700474223,0.9888344238515044
16217.53881479167,-0.0177001953125,0.0313720703125,-1.01104736328125,16217.53384579167,0.2953386309440783,-0.0085707395604908,-0.0273664908857846,-0.0929577127099037,0.117293156683445,-0.2835572063922882,-0.0111469440162181,-0.0332377329468727,0.0139626264572143,-0.0129033210229759,-0.006251500044726,0.1471760950018637,0.98900633146625
16217.54875379167,0.01806640625,0.0187225341796875,-1.003646850585938,16217.54378479167,0.2924301735260079,-0.0074075891221163,-0.0284172167631761,-0.1287388801574707,0.1308939307928085,-0.2702464461326599,-0.0221975333988666,-0.0075546521693468,-0.0087166428565979,-0.0135168598601506,-0.0057339296200968,0.1457310115940897,0.9892153133816598
16217.55869279167,0.0238189697265625,0.037200927734375,-1.005172729492188,16217.55372379167,0.2902549828860134,-0.0061359052154465,-0.0295750713069228,-0.1157831326127052,0.1292513906955719,-0.1708382368087769,0.0075522372499108,-0.0034935139119625,-0.0067121982574462,-0.014187844844621,-0.0051738280042835,0.1446469719649963,0.989368125201226
