loggingTime(txt),locationTimestamp_since1970(s),locationLatitude(WGS84),locationLongitude(WGS84),locationAltitude(m),locationSpeed(m/s),locationCourse(°),locationVerticalAccuracy(m),locationHorizontalAccuracy(m),locationFloor(Z),accelerometerTimestamp_sinceReboot(s),accelerometerAccelerationX(G),accelerometerAccelerationY(G),accelerometerAccelerationZ(G),motionTimestamp_sinceReboot(s),motionYaw(rad),motionRoll(rad),motionPitch(rad),motionRotationRateX(rad/s),motionRotationRateY(rad/s),motionRotationRateZ(rad/s),motionUserAccelerationX(G),motionUserAccelerationY(G),motionUserAccelerationZ(G),motionAttitudeReferenceFrame(txt),motionQuaternionX(R),motionQuaternionY(R),motionQuaternionZ(R),motionQuaternionW(R),motionGravityX(G),motionGravityY(G),motionGravityZ(G),motionMagneticFieldX(µT),motionMagneticFieldY(µT),motionMagneticFieldZ(µT),motionHeading(°),motionMagneticFieldCalibrationAccuracy(Z),activityTimestamp_sinceReboot(s),activity(txt),activityActivityConfidence(Z),activityActivityStartDate(txt),pedometerStartDate(txt),pedometerNumberofSteps(N),pedometerAverageActivePace(s/m),pedometerCurrentPace(s/m),pedometerCurrentCadence(steps/s),pedometerDistance(m),pedometerFloorAscended(N),pedometerFloorDescended(N),pedometerEndDate(txt),altimeterTimestamp_sinceReboot(s),altimeterReset(bool),altimeterRelativeAltitude(m),altimeterPressure(kPa),batteryState(N),batteryLevel(R)
2021-12-13 16:05:39.690 -0500,1639429539.585947,33.99212653134514,-81.03121317165193,70.77635,-1,-1,23.53884887695312,35,-9999,16214.080037625,-0.0247650146484375,-0.036041259765625,-0.997711181640625,16214.075067625,0.2527365224953997,-0.01739600771977005,0.01596026088734944,-0.009728069417178631,0.005363063886761665,-0.02120373398065567,-0.0001547057181596756,-0.02322500944137573,0.003322422504425049,XArbitraryZVertical,0.009012294660742807,-0.007622559155694513,0.1259545676843246,0.991965768018391,-0.01739291474223137,-0.01595958322286606,-0.999721348285675,0,0,0,-1,-1,,,,,,,,,,,,,,661122339.1719375,0,-0.27,101.8662,1,0.71
2021-12-13 16:05:39.706 -0500,,,,,,,,,,16214.089976625,-0.013275146484375,-0.0381622314453125,-0.9968414306640625,16214.085006625,0.2525891716050391,-0.01736230797970728,0.01581558310473662,-0.01877908781170845,0.0004287585616111755,-0.002330709714442492,-0.01402807608246803,-0.02027213200926781,-0.001023411750793457,XArbitraryZVertical,0.008937854409359257,-0.007615624332385613,0.1258823265435134,0.9919757016943009,-0.01735926419496536,-0.01581492461264133,-0.9997242093086243,0,0,0,-1,-1,,,,,,,,,,,,,,,,,,1,0.71
2021-12-13 16:05:39.707 -0500,,,,,,,,,,16214.099915625,-0.014556884765625,-0.0182342529296875,-1.000717163085938,16214.094945625,0.2526168187752391,-0.01738323010563429,0.01562095262953353,-0.01603257283568382,-0.008535007946193218,-0.000731614651158452,-0.00094558484852314,-0.02351849898695946,0.003892600536346436,XArbitraryZVertical,0.008842744348580062,-0.007638142801598222,0.1258968831900035,0.9919745161083675,-0.0173802338540554,-0.01562031731009483,-0.9997269511222839,0,0,0,-1,-1,,,,,,,,,,,,,,,,,,1,0.71
2021-12-13 16:05:39.709 -0500,,,,,,,,,,16214.109854625,0.0222930908203125,-0.018280029296875,-0.990478515625,16214.104884625,0.2523411419093005,-0.01757723310938596,0.01553282704014168,-0.006033199839293957,-0.04507490992546082,-0.05392958968877792,0.004314307123422623,-0.01399357616901398,0.001708567142486572,XArbitraryZVertical,0.008810181473713107,-0.007741133719853147,0.1257597223263364,0.9919913770499378,-0.01757420785725117,-0.01553220208734274,-0.9997249245643616,0,0,0,-1,-1,,,,,,,,,,,,,,,,,,1,0.71
2021-12-13 16:05:39.712 -0500,,,,,,,,,,16214.119793625,-0.03253173828125,-0.0184478759765625,-1.016464233398438,16214.114823625,0.2499913857325272,-0.01673943035210847,0.01549301283492041,0.001298215705901384,-0.04917418211698532,-0.0498696006834507,-0.03210675716400146,0.01443951576948166,-0.006272017955780029,XArbitraryZVertical,0.008729136202490483,-0.007338353105650871,0.1245980213010367,0.9921417873903531,-0.01673663966357708,-0.0154923927038908,-0.9997398853302002,0,0,0,-1,-1,,,,,,,,,,,,,,,,,,1,0.71
2021-12-13 16:05:39.722 -0500,,,,,,,,,,16214.129732625,-0.0217742919921875,-0.030609130859375,-1.003768920898438,16214.124762625,0.2496997350307568,-0.01688616132465602,0.0155099940123303,-0.00896960124373436,-0.005708728916943073,-0.004661108832806349,-0.02796226367354393,0.005697949789464474,-0.0197482705116272,XArbitraryZVertical,0.008745620208099601,-0.007411358343784707,0.124452618080162,0.9921593699797223,-0.01688332855701447,-0.01550937257707119,-0.9997371435165405,0,0,0,-1,-1,,,,,,,,,,,,,,,,,,1,0.71
2021-12-13 16:05:39.732 -0500,,,,,,,,,,16214.139671625,-0.0261993408203125,-0.015655517578125,-1.007659912109375,16214.134701625,0.2496235085351822,-0.01689957065597259,0.01543622741883515,-0.009861494414508343,0.001844927668571472,-0.01686104945838451,-0.005243761464953423,-0.01688252203166485,0.002667784690856934,XArbitraryZVertical,0.008709578205727996,-0.007422937405992919,0.1244150896585691,0.9921643073333787,-0.01689675264060497,-0.01543561462312937,-0.9997380971908569,0,0,0,-1,-1,,,,,,,,,,,,,,,,,,1,0.71
2021-12-13 16:05:39.742 -0500,,,,,,,,,,16214.149610625,-0.0086517333984375,-0.009490966796875,-1.004501342773438,16214.144640625,0.2494331394975026,-0.01685643793174387,0.01535440127904329,-0.006758378818631172,0.0005197394639253616,-0.0122564435005188,-0.01206176541745663,-0.004131698049604893,-0.008667528629302979,XArbitraryZVertical,0.008665597993914923,-0.007407460302163962,0.1243212177106844,0.9921765900335155,-0.01685365289449692,-0.0153537979349494,-0.9997400641441345,0,0,0,-1,-1,,,,,,,,,,,,,,,,,,1,0.71
2021-12-13 16:05:39.752 -0500,,,,,,,,,,16214.159549625,-0.0160369873046875,0.0005645751953125,-1.009933471679688,16214.154579625,0.2493008867855571,-0.01687464172114172,0.01536466705291771,0.00447616633027792,-0.00501197949051857,-0.01717237383127213,-0.0001569706946611404,0.002424587495625019,-0.007630348205566406,XArbitraryZVertical,0.008671331950145822,-0.007416425698502285,0.1242554834403716,0.992184692595392,-0.01687184907495975,-0.01536406297236681,-0.9997395873069763,0,0,0,-1,-1,,,,,,,,,,,,,,,,,,1,0.71
2021-12-13 16:05:39.762 -0500,,,,,,,,,,16214.169488625,-0.024017333984375,-0.0059356689453125,-1.00970458984375,16214.164518625,0.2490304519096266,-0.01695413477743272,0.01545740462778489,0.006328128278255463,-0.005021566525101662,-0.02816883102059364,0.006193839013576508,0.01054343674331903,-0.00607675313949585,XArbitraryZVertical,0.008721268818814245,-0.007451273357088329,0.1241205424423081,0.9922008846136128,-0.0169512964785099,-0.01545678917318583,-0.9997368454933167,0,0,0,-1,-1,,,,,,,,,,,,,,,,,,1,0.71
2021-12-13 16:05:39.772 -0500,,,,,,,,,,16214.179427625,-0.0252838134765625,-0.0116119384765625,-1.008987426757812,16214.174457625,0.2488779626560638,-0.01700547332743567,0.0156112305805536,0.009297286160290241,-0.001655629836022854,-0.001517113763839006,-0.004069818183779716,0.01547324657440186,-0.011161208152771,XArbitraryZVertical,0.008800197238978763,-0.007467856843187199,0.1240439437850213,0.9922096539104241,-0.01700258255004883,-0.015610596165061,-0.999733567237854,0,0,0,-1,-1,,,,,,,,,,,,,,,,,,1,0.71
2021-12-13 16:05:39.782 -0500,,,,,,,,,,16214.189366625,-0.024658203125,-0.0099029541015625,-1.006317138671875,16214.184396625,0.2488903384961939,-0.01690338962846523,0.01570106153933257,0.005584041122347116,0.01684215292334557,-0.001992221688851714,-0.00844435952603817,0.003737503662705421,-0.009757041931152344,XArbitraryZVertical,0.008838476664734776,-0.007411580612753032,0.124050114088308,0.9922089484850778,-0.01690050214529037,-0.01570041663944721,-0.9997339248657227,0,0,0,-1,-1,,,,,,,,,,,,,,,,,,1,0.71
2021-12-13 16:05:39.792 -0500,,,,,,,,,,16214.199305625,-0.016021728515625,-0.017669677734375,-1.00433349609375,16214.194335625,0.2488840859405413,-0.01679701422034391,0.01568369129285081,-0.0007156664505600929,0.02009430527687073,0.007939372211694717,-0.008810101076960564,0.006619308143854141,-0.006092846393585205,XArbitraryZVertical,0.008823238367748733,-0.007359913396670594,0.1240475627267351,0.9922097893186885,-0.01679415814578533,-0.01568304747343063,-0.999735951423645,0,0,0,-1,-1,,,,,,,,,,,,,,,,,,1,0.71
2021-12-13 16:05:39.802 -0500,,,,,,,,,,16214.209244625,-0.0081787109375,-0.01239013671875,-1.0069580078125,16214.204274625,0.2490549503438311,-0.01666879588935689,0.01567376456354672,0.001953619997948408,0.01742581650614738,0.01802476309239864,-0.00352141447365284,0.00110095739364624,-0.00642627477645874,XArbitraryZVertical,0.008810984274420655,-0.007296167159016375,0.1241329376489968,0.9921997133772238,-0.0166659764945507,-0.01567312330007553,-0.9997382760047913,0,0,0,-1,-1,,,,,,,,,,,,,,,,,,1,0.71
2021-12-13 16:05:39.812 -0500,,,,,,,,,,16214.219183625,-0.000335693359375,-3.0517578125e-05,-1.00872802734375,16214.214213625,0.2490551356260303,-0.01658014543023074,0.01578583447708818,0.01466462109237909,0.004034280776977539,-0.02540247328579426,0.005972448736429214,-0.0008011460304260254,-0.006289243698120117,XArbitraryZVertical,0.008861080210089439,-0.007245224068804426,0.1241329103500407,0.9921995935696202,-0.01657732017338276,-0.01578517816960812,-0.9997379779815674,0,0,0,-1,-1,,,,,,,,,,,,,,,,,,1,0.71
2021-12-13 16:05:39.822 -0500,,,,,,,,,,16214.229122625,-0.0054473876953125,-0.0088653564453125,-1.005355834960938,16214.224152625,0.2485610809982506,-0.01665226986826592,0.01596797731640668,0.01982502825558186,-0.01263764128088951,-0.06667694449424744,0.01214802451431751,0.01056566648185253,-0.008582115173339844,XArbitraryZVertical,0.008954120414604042,-0.007271900424860065,0.1238866480697039,0.992229312528586,-0.01664937660098076,-0.01596729829907417,-0.9997338652610779,0,0,0,-1,-1,,,,,,,,,,,,,,,,,,1,0.71
2021-12-13 16:05:39.831 -0500,,,,,,,,,,16214.239061625,-0.0118865966796875,-0.0256500244140625,-1.00384521484375,16214.234091625,0.247936154538923,-0.01679350947012579,0.01617657902547336,0.01709848456084728,-0.01600141264498234,-0.05715587362647057,0.01492893695831299,0.01555024087429047,-0.007794380187988281,XArbitraryZVertical,0.009064067388857658,-0.00733186870911652,0.1235750029064257,0.9922667240842209,-0.01679052226245403,-0.01617587357759476,-0.9997281432151794,0,0,0,-1,-1,,,,,,,,,,,,,,,,,,1,0.71
2021-12-13 16:05:39.841 -0500,,,,,,,,,,16214.249000625,-0.0173187255859375,-0.032318115234375,-1.000595092773438,16214.244030625,0.2474432090639291,-0.01691560219417137,0.01628011240002224,0.00543943140655756,-0.009991989471018314,-0.04424992948770523,0.009664617478847504,-0.002580491825938225,-0.004807412624359131,XArbitraryZVertical,0.009121156551980682,-0.007388287544580736,0.1233293998769656,0.992296277996907,-0.0169125534594059,-0.01627939380705357,-0.9997244477272034,0,0,0,-1,-1,,,,,,,,,,,,,,,,,,1,0.71
2021-12-13 16:05:39.851 -0500,,,,,,,,,,16214.258939625,-0.0160064697265625,-0.035858154296875,-0.9999847412109375,16214.253969625,0.2472188415777302,-0.01696971398982224,0.01595564978975897,-0.06155158206820488,-0.002950526773929596,0.01114648208022118,0.0006550829857587814,-0.01276208646595478,-0.002010703086853027,XArbitraryZVertical,0.008962679163061217,-0.007436169964689346,0.1232193472538621,0.992311143098873,-0.01696673966944218,-0.01595497317612171,-0.9997287392616272,0,0,0,-1,-1,,,,,,,,,,,,,,,,,,1,0.71
2021-12-13 16:05:39.861 -0500,,,,,,,,,,16214.268878625,-0.0269622802734375,-0.0047607421875,-1.014495849609375,16214.263908625,0.2472866018163988,-0.01690473432949667,0.01569391171053301,0.01169413141906261,0.01416587643325329,-0.01776799000799656,0.001627787947654724,-0.01989025063812733,0.002862036228179932,XArbitraryZVertical,0.008829066198731923,-0.00741977378398841,0.1232544806233063,0.9923081229730016,-0.01690184697508812,-0.01569326780736446,-0.9997339844703674,0,0,0,-1,-1,,,,,,,,,,,,,,,,,,1,0.71
2021-12-13 16:05:39.871 -0500,,,,,,,,,,16214.278817625,-0.0204620361328125,0.001190185546875,-1.007080078125,16214.273847625,0.2466533031480919,-0.01686057236654987,0.01565832179089467,-0.008240427821874619,-0.006155773065984249,-0.09355835616588593,-0.005099702626466751,-0.01000762358307838,-0.01129680871963501,XArbitraryZVertical,0.008806343046066525,-0.00740284713268547,0.1229406204316499,0.9923473959086674,-0.01685770601034164,-0.01565768197178841,-0.9997352957725525,0,0,0,-1,-1,,,,,,,,,,,,,,,,,,1,0.71
2021-12-13 16:05:39.881 -0500,,,,,,,,,,16214.288756625,-0.00909423828125,-0.00592041015625,-1.007034301757812,16214.283786625,0.2458764345720441,-0.01702970044031698,0.01568759676181378,0.01342385448515415,-0.0274227112531662,-0.06378581374883652,-0.01149190589785576,0.02217191830277443,-0.008645057678222656,XArbitraryZVertical,0.008828356663748781,-0.00748839241137444,0.1225542685647254,0.992394331798399,-0.01702678203582764,-0.01568695344030857,-0.9997319579124451,0,0,0,-1,-1,,,,,,,,,,,,,,,,,,1,0.71
2021-12-13 16:05:39.891 -0500,,,,,,,,,,16214.298695625,-0.0203094482421875,-0.000396728515625,-1.000656127929688,16214.293725625,0.2451615646587203,-0.01737165674156549,0.01614559131369324,0.04992993548512459,-0.04592669010162354,-0.09858454018831253,0.006244851276278496,0.009232638403773308,-0.004538357257843018,XArbitraryZVertical,0.009073834460628887,-0.007633218614503138,0.1221958410476632,0.9924351753130775,-0.01736851967871189,-0.01614489033818245,-0.9997187852859497,0,0,0,-1,-1,,,,,,,,,,,,,,,,,,1,0.71
2021-12-13 16:05:39.901 -0500,,,,,,,,,,16214.308634625,-0.0180816650390625,-0.0294036865234375,-0.9976806640625,16214.303664625,0.244002310552765,-0.01770383041677333,0.01656771254710579,0.0413963682949543,-0.02953519858419895,-0.1247018948197365,0.002853661775588989,0.016673743724823,-0.006611049175262451,XArbitraryZVertical,0.009299082809763787,-0.007777619757983317,0.121617006897622,0.9925030599193071,-0.01770047657191753,-0.01656695455312729,-0.9997060894966125,0,0,0,-1,-1,,,,,,,,,,,,,,,,,,1,0.71
2021-12-13 16:05:39.911 -0500,,,,,,,,,,16214.318573625,-0.0239715576171875,-0.040130615234375,-0.994110107421875,16214.313603625,0.2429835180946022,-0.01788736354879352,0.01687961148233225,0.01836162060499191,-0.01811589673161507,-0.07377559691667557,-0.001342225819826126,0.0007197298109531403,0.002245783805847168,XArbitraryZVertical,0.009461020267010392,-0.007854529584685237,0.1211090145001178,0.9925630681645774,-0.01788386143743992,-0.01687880977988243,-0.9996975660324097,0,0,0,-1,-1,,,,,,,,,,,,,,,,,,1,0.71
2021-12-13 16:05:39.921 -0500,,,,,,,,,,16214.328512625,-0.02349853515625,-0.0313720703125,-0.99884033203125,16214.323542625,0.2425913257290313,-0.01795467312689173,0.01705670001817932,0.01639221422374249,0.003362230956554413,-0.007922815158963203,-0.002282069995999336,-0.01938213780522346,0.004484653472900391,XArbitraryZVertical,0.009551436360916729,-0.007879070886046273,0.120913186196211,0.9925857949569454,-0.01795109733939171,-0.01705587282776833,-0.9996933937072754,0,0,0,-1,-1,,,,,,,,,,,,,,,,,,1,0.71
2021-12-13 16:05:39.931 -0500,,,,,,,,,,16214.338451625,-0.0319976806640625,-0.0130615234375,-1.004364013671875,16214.333481625,0.2425767773387979,-0.0178690941950029,0.01717951647782491,0.007112695369869471,0.01025775447487831,-0.006434640847146511,-0.006075546145439148,-0.02208221331238747,0.003278613090515137,XArbitraryZVertical,0.009607156977751665,-0.007829233941781104,0.1209057619754469,0.9925865933564426,-0.0178655069321394,-0.01717867143452168,-0.9996927976608276,0,0,0,-1,-1,,,,,,,,,,,,,,,,,,1,0.71
2021-12-13 16:05:39.941 -0500,,,,,,,,,,16214.348390625,-0.0253753662109375,-0.0141143798828125,-1.00311279296875,16214.343420625,0.2424119559674238,-0.01773655507915354,0.01731677470471435,0.01345900818705559,0.0136325117200613,-0.02234862744808197,-0.009671831503510475,-0.002047516405582428,-0.001009106636047363,XArbitraryZVertical,0.009666624447088415,-0.007755944168037131,0.1208239216000213,0.992596564467651,-0.01773296669125557,-0.01731590926647186,-0.9996927976608276,0,0,0,-1,-1,,,,,,,,,,,,,,,,,,1,0.71
2021-12-13 16:05:39.951 -0500,,,,,,,,,,16214.358329625,-0.0200958251953125,-0.0272369384765625,-1.001708984375,16214.353359625,0.2423442461755587,-0.01755946756615352,0.01741096720252729,0.003211430739611387,0.02427929639816284,0.01227113697677851,-0.01509791612625122,0.005889678373932838,-0.005814135074615479,XArbitraryZVertical,0.009702413357396678,-0.007662686797253582,0.1207907111515175,0.9926009960737188,-0.01755590364336967,-0.01741008833050728,-0.999694287776947,0,0,0,-1,-1,,,,,,,,,,,,,,,,,,1,0.71
2021-12-13 16:05:39.961 -0500,,,,,,,,,,16214.368268625,-0.0269927978515625,-0.014678955078125,-1.008712768554688,16214.363298625,0.2424986206693737,-0.01731596014828632,0.01739223738970339,-0.0007367054931819439,0.02565162628889084,0.006797540932893753,-0.003149572759866714,-0.00490175187587738,-0.001353979110717773,XArbitraryZVertical,0.009678993251552432,-0.007542219394958195,0.1208685971910255,0.9925926710618327,-0.01731247641146183,-0.01739136129617691,-0.9996988773345947,0,0,0,-1,-1,,,,,,,,,,,,,,,,,,1,0.71
2021-12-13 16:05:39.971 -0500,,,,,,,,,,16214.378207625,-0.0200958251953125,-0.01666259765625,-1.00579833984375,16214.373238625,0.2425244834818724,-0.01705410411407109,0.01730464838940819,-0.01093954127281904,0.02749230153858662,0.01187445968389511,-0.008812936022877693,-0.005431832745671272,-0.004720151424407959,XArbitraryZVertical,0.009619795079061135,-0.007417436817331327,0.1208831202214399,0.9925923790376227,-0.01705072447657585,-0.01730378530919552,-0.999704897403717,0,0,0,-1,-1,,,,,,,,,,,,,,,,,,1,0.71
2021-12-13 16:05:39.981 -0500,,,,,,,,,,16214.388146625,-0.01629638671875,-0.014129638671875,-1.00836181640625,16214.383177625,0.2428415459123836,-0.01675620598046062,0.01719840278611656,-0.002707445062696934,0.0287285391241312,0.04942236840724945,-0.008042600005865097,0.003647727891802788,-0.007917642593383789,XArbitraryZVertical,0.009550214112666829,-0.007274506304381544,0.1210424008705757,0.9925747293739755,-0.0167529433965683,-0.01719755493104458,-0.9997117519378662,0,0,0,-1,-1,,,,,,,,,,,,,,,,,,1,0.71
2021-12-13 16:05:39.991 -0500,,,,,,,,,,16214.398085625,-0.0165557861328125,-0.006103515625,-1.0084228515625,16214.393116625,0.243225360666088,-0.01645746257208375,0.01718385998910972,0.003867633640766144,0.03043832443654537,0.02035995572805405,-4.047155380249023e-05,-0.0004256479442119598,-0.007256269454956055,XArbitraryZVertical,0.009526283703849291,-0.007125296670257928,0.1212343705434476,0.9925526371835109,-0.01645429059863091,-0.01718301512300968,-0.9997169375419617,0,0,0,-1,-1,,,,,,,,,,,,,,,,,,1,0.71
2021-12-13 16:05:40.001 -0500,,,,,,,,,,16214.408024625,-0.00921630859375,-0.0184478759765625,-1.004501342773438,16214.403055625,0.2432040334516371,-0.01623124597853982,0.01728296190225958,0.005877521354705095,0.01783677749335766,-0.01365047506988049,-0.0009227823466062546,0.00963742658495903,-0.007635772228240967,XArbitraryZVertical,0.009561676974511369,-0.007007118261918141,0.1212244073631753,0.9925543959118974,-0.01622810959815979,-0.01728210225701332,-0.999718964099884,0,0,0,-1,-1,,,,,,,,,,,,,,,,,,1,0.71
2021-12-13 16:05:40.010 -0500,,,,,,,,,,16214.417963625,-0.0149993896484375,-0.019439697265625,-1.0045166015625,16214.412993625,0.243224506565021,-0.01609868230591097,0.01740691835000529,0.008936428464949131,0.01450945623219013,0.01398980803787708,0.002118485048413277,0.00742676854133606,-0.007818877696990967,XArbitraryZVertical,0.00961522894100816,-0.006933709725964773,0.1212346436220647,0.9925531198437398,-0.01609554886817932,-0.01740603893995285,-0.999718964099884,0,0,0,-1,-1,,,,,,,,,,,,,,,,,,1,0.71
2021-12-13 16:05:40.020 -0500,,,,,,,,,,16214.427902625,-0.0215301513671875,-0.011810302734375,-1.009796142578125,16214.422933625,0.2432958413231235,-0.01600801059538629,0.0175334545533329,0.01587769016623497,0.008583923801779747,-0.00427708076313138,0.007322603836655617,-0.004546932876110077,-0.003303050994873047,XArbitraryZVertical,0.009672774058303553,-0.006880687443817626,0.1212699124781456,0.992548612110208,-0.01600486598908901,-0.01753255538642406,-0.999718189239502,0,0,0,-1,-1,,,,,,,,,,,,,,,,,,1,0.71
2021-12-13 16:05:40.030 -0500,,,,,,,,,,16214.437841625,-0.0168914794921875,-0.0182647705078125,-1.006988525390625,16214.432872625,0.2432257243509946,-0.01597271518560124,0.01768285722484929,0.01637383922934532,0.005827983841300011,-0.003753903321921825,-0.004217850044369698,0.003353914245963097,-0.00885927677154541,XArbitraryZVertical,0.009744537038349137,-0.006854443433175547,0.1212346139059456,0.9925524038074768,-0.0159695390611887,-0.01768193580210209,-0.9997161030769348,0,0,0,-1,-1,,,,,,,,,,,,,,,,,,1,0.71
2021-12-13 16:05:40.040 -0500,,,,,,,,,,16214.447780625,-0.017669677734375,-0.018463134765625,-1.006698608398438,16214.442811625,0.2433229240257019,-0.01587312306062341,0.01782790315311037,0.01219666935503483,0.01314342208206654,0.02155491523444653,-0.002989942207932472,0.004124544560909271,-0.008005797863006592,XArbitraryZVertical,0.009810812186924648,-0.00679573908921837,0.1212826901937862,0.992546256529489,-0.01586993411183357,-0.01782695949077606,-0.9997151494026184,0,0,0,-1,-1,,,,,,,,,,,,,,,,,,1,0.71
2021-12-13 16:05:40.050 -0500,,,,,,,,,,16214.457719625,-0.01165771484375,-0.0184326171875,-1.004287719726562,16214.452750625,0.2435561156834925,-0.01573419486500907,0.01793916723674059,0.007116690278053284,0.01982143148779869,0.02470756508409977,-0.0009926296770572662,-0.002432297915220261,-0.00707477331161499,XArbitraryZVertical,0.009858386910115488,-0.006718888207965026,0.1213985988590737,0.9925321698653173,-0.01573101431131363,-0.01793820597231388,-0.9997153282165527,0,0,0,-1,-1,,,,,,,,,,,,,,,,,,1,0.71
2021-12-13 16:05:40.061 -0500,,,,,,,,,,16214.467658625,-0.009033203125,-0.0171051025390625,-1.000747680664062,16214.462689625,0.2439066775989999,-0.01553972022329613,0.01795183776554171,0.0004824898205697536,0.0203213058412075,0.04866829514503479,-0.001095500774681568,0.0006473865360021591,-0.006995677947998047,XArbitraryZVertical,0.009854031012328538,-0.006619880020564562,0.1215734742502247,0.992511448587364,-0.0155365914106369,-0.0179508738219738,-0.9997181296348572,0,0,0,-1,-1,,,,,,,,,,,,,,,,,,1,0.71
2021-12-13 16:05:40.070 -0500,,,,,,,,,,16214.477597625,-0.0148468017578125,-0.0136871337890625,-0.99945068359375,16214.472628625,0.2444066798029876,-0.0153136035532947,0.01795985880176875,-0.0005617355927824974,0.02407513372600079,0.04319722577929497,0.00623154453933239,-0.001618154346942902,-0.004062652587890625,XArbitraryZVertical,0.009845892331299703,-0.006504718652028979,0.1218226714171269,0.9924817910921327,-0.01531053520739079,-0.01795889250934124,-0.9997214674949646,0,0,0,-1,-1,,,,,,,,,,,,,,,,,,1,0.71
2021-12-13 16:05:40.080 -0500,,,,,,,,,,16214.487536625,-0.0142974853515625,-0.017669677734375,-0.995574951171875,16214.482567625,0.2446997093393085,-0.01506700653039861,0.01790847827998004,-0.00449096318334341,0.0251955259591341,0.01846844516694546,0.00326896458864212,0.002465603873133659,-0.0004111528396606445,XArbitraryZVertical,0.009806310856816275,-0.006384043667048521,0.1219695209040408,0.9924648945868051,-0.01506402064114809,-0.01790752075612545,-0.9997261762619019,0,0,0,-1,-1,,,,,,,,,,,,,,,,,,1,0.71
2021-12-13 16:05:40.090 -0500,,,,,,,,,,16214.497475625,-0.0094757080078125,-0.0257110595703125,-0.995086669921875,16214.492506625,0.2450611022763031,-0.01481948760732917,0.01778264950374205,-0.01390097755938768,0.03088167309761047,0.05729027837514877,-0.0002590930089354515,0.005666214972734451,0.0009375810623168945,XArbitraryZVertical,0.00972990910843324,-0.006267140621842568,0.1221505975631846,0.9924441243280993,-0.01481660176068544,-0.01778171211481094,-0.9997320771217346,0,0,0,-1,-1,,,,,,,,,,,,,,,,,,1,0.71
2021-12-13 16:05:40.100 -0500,,,,,,,,,,16214.507414625,-0.0108184814453125,-0.015716552734375,-0.9998016357421875,16214.502445625,0.2457215799826091,-0.01451127732974692,0.01763610836491009,-0.0175364576280117,0.02936633676290512,0.07079516351222992,0.003979934379458427,-0.006611043587327003,0.005751192569732666,XArbitraryZVertical,0.009640390850176735,-0.006119976104626239,0.1224804419489785,0.9924052457646118,-0.01450851187109947,-0.01763519458472729,-0.9997392296791077,0,0,0,-1,-1,,,,,,,,,,,,,,,,,,1,0.71
2021-12-13 16:05:40.110 -0500,,,,,,,,,,16214.517353625,-0.0080108642578125,-0.0069580078125,-1.001846313476562,16214.512384625,0.2463306653240576,-0.0142750997249116,0.01743651314665996,-0.01701421290636063,0.02405945584177971,0.05224784836173058,0.003637056797742844,-0.003209535032510757,0.001622974872589111,XArbitraryZVertical,0.009528720234786792,-0.006012118260591116,0.1227846168713499,0.9923694066756784,-0.01427244488149881,-0.01743562892079353,-0.9997461438179016,0,0,0,-1,-1,,,,,,,,,,,,,,,,,,1,0.71
2021-12-13 16:05:40.120 -0500,,,,,,,,,,16214.527292625,-0.01416015625,-0.0074005126953125,-1.004226684570312,16214.522323625,0.2467138040300197,-0.01403179011419385,0.01723149075730126,-0.02450914680957794,0.02682195231318474,0.03038888610899448,0.005591124296188354,0.006946193054318428,0.000104069709777832,XArbitraryZVertical,0.009413186200769761,-0.00590218790045102,0.1229767044785517,0.9923473765738144,-0.01402924675494432,-0.01723063737154007,-0.9997531175613403,0,0,0,-1,-1,,,,,,,,,,,,,,,,,,1,0.71
2021-12-13 16:05:40.139 -0500,,,,,,,,,,16214.537231625,-0.0153961181640625,-0.0175628662109375,-1.004287719726562,16214.532262625,0.2471569236377422,-0.01377706839603397,0.0169782356774455,-0.02117300406098366,0.02724749036133289,0.06923921406269073,0.002620460465550423,0.01088914275169373,-0.003489136695861816,XArbitraryZVertical,0.009273149952706615,-0.005789334537875947,0.1231987646221898,0.9923218009387844,-0.01377464737743139,-0.01697742007672787,-0.9997609853744507,0,0,0,-1,-1,,,,,,,,,,,,,,,,,,1,0.71
2021-12-13 16:05:40.156 -0500,,,,,,,,,,16214.547170625,-0.0160675048828125,-0.0052337646484375,-1.010910034179688,16214.542201625,0.2479814926083025,-0.01350709144266709,0.01679642704101577,-0.008482509292662144,0.02751726843416691,0.08741103112697601,-0.001052122563123703,0.00371883250772953,-0.005099833011627197,XArbitraryZVertical,0.009168648939617574,-0.005662812334082406,0.1236098187588504,0.9922724611149996,-0.01350477524101734,-0.01679563708603382,-0.9997677206993103,0,0,0,-1,-1,,,,,,,,,,,,,,,,,,1,0.71
2021-12-13 16:05:40.158 -0500,,,,,,,,,,16214.557109625,-0.00970458984375,0.005584716796875,-1.008285522460938,16214.552140625,0.2485936713630443,-0.01334171528710238,0.01677246264561577,0.004006118047982454,0.005991470068693161,0.03156080842018127,-0.001873582601547241,0.002489428967237473,-0.00749284029006958,XArbitraryZVertical,0.009148247804223237,-0.005579446130327453,0.123914399824858,0.9922350208523261,-0.0133394431322813,-0.01677167601883411,-0.9997703433036804,0,0,0,-1,-1,,,,,,,,,,,,,,,,,,1,0.71
2021-12-13 16:05:40.160 -0500,,,,,,,,,,16214.567048625,-0.00677490234375,-0.01727294921875,-1.00238037109375,16214.562079625,0.2487290340989069,-0.01337519369140668,0.01685595355858481,0.01109172403812408,-0.007655898109078407,0.002837287727743387,-0.0005889097228646278,0.01996792480349541,-0.01065325736999512,XArbitraryZVertical,0.009192121758012468,-0.005590255922405451,0.1239810888865623,0.9922261632554152,-0.01337289530783892,-0.01685515604913235,-0.9997684955596924,0,0,0,-1,-1,,,,,,,,,,,,,,,,,,1,0.71
2021-12-13 16:05:40.170 -0500,,,,,,,,,,16214.576987625,-0.0205078125,-0.0192718505859375,-1.003494262695312,16214.572018625,0.2487977512935289,-0.01349060612414193,0.01700166129558695,0.01618262380361557,-0.01240674406290054,0.005476080346852541,0.007308425381779671,0.01254525408148766,-0.004416406154632568,XArbitraryZVertical,0.009271755326704356,-0.005638153942964357,0.1240140734498304,0.9922211307402599,-0.01348824705928564,-0.01700084283947945,-0.9997645020484924,0,0,0,-1,-1,,,,,,,,,,,,,,,,,,1,0.71
2021-12-13 16:05:40.180 -0500,,,,,,,,,,16214.586926625,-0.0333404541015625,-0.025299072265625,-1.005615234375,16214.581957625,0.2486967748972384,-0.01357380892789134,0.01712012364849217,0.001804216299206018,-0.005971215665340424,-0.02978470548987389,0.002035746350884438,-0.005189085379242897,-0.003259897232055664,XArbitraryZVertical,0.009335397872732448,-0.005672550867541399,0.1239631331012562,0.9922266814760492,-0.01357140298932791,-0.01711928658187389,-0.9997613430023193,0,0,0,-1,-1,,,,,,,,,,,,,,,,,,1,0.71
2021-12-13 16:05:40.190 -0500,,,,,,,,,,16214.596865625,-0.032379150390625,-0.0354156494140625,-1.0059814453125,16214.591896625,0.2484727894839414,-0.01352356500694237,0.01710766692819072,-0.00409974530339241,0.01489132083952427,-0.004250049591064453,-0.01518062129616737,-0.003950318321585655,-0.004266083240509033,XArbitraryZVertical,0.009325471105440885,-0.005649441386916765,0.123852292217403,0.9922407550377812,-0.01352117396891117,-0.01710683293640614,-0.999762237071991,0,0,0,-1,-1,,,,,,,,,,,,,,,,,,1,0.71
2021-12-13 16:05:40.200 -0500,,,,,,,,,,16214.606804625,-0.03179931640625,-0.0292205810546875,-1.007461547851562,16214.601835625,0.2486312112803908,-0.01330997992125834,0.01705323747198191,-0.00479003693908453,0.0239828210324049,0.02522528357803822,-0.01966660469770432,-0.01409079879522324,-0.006459534168243408,XArbitraryZVertical,0.009285679997484437,-0.005546115423115346,0.1239320840173125,0.9922318141430034,-0.01330765150487423,-0.01705241017043591,-0.9997660517692566,0,0,0,-1,-1,,,,,,,,,,,,,,,,,,1,0.71
2021-12-13 16:05:40.210 -0500,,,,,,,,,,16214.616743625,-0.0277252197265625,-0.0233154296875,-1.010940551757812,16214.611774625,0.2487911153210038,-0.01306453516493858,0.01697810431523121,-0.003842484205961227,0.02601072005927563,0.0009136861190199852,-0.01922532916069031,-0.01737026683986187,-0.005814135074615479,XArbitraryZVertical,0.009233631363889515,-0.005428268283881675,0.1240128466765036,0.9922227743454348,-0.01306228060275316,-0.01697728782892227,-0.9997705221176147,0,0,0,-1,-1,,,,,,,,,,,,,,,,,,1,0.71
2021-12-13 16:05:40.219 -0500,,,,,,,,,,16214.626682625,-0.016510009765625,-0.0222625732421875,-1.005935668945312,16214.621713625,0.2486628758388514,-0.01282508595615994,0.01690501444421898,-0.009168806485831738,0.02440456487238407,-0.02488755062222481,-0.01856444031000137,-0.008562732487916946,-0.01197439432144165,XArbitraryZVertical,0.009182182691712237,-0.005314599495473647,0.123950598436543,0.9922316653279548,-0.01282290183007717,-0.01690420880913734,-0.9997748732566833,0,0,0,-1,-1,,,,,,,,,,,,,,,,,,1,0.71
2021-12-13 16:05:40.229 -0500,,,,,,,,,,16214.63662016667,-0.0174713134765625,-0.019683837890625,-1.007949829101562,16214.63165116667,0.2483315393570634,-0.01260231542809334,0.01684053867845798,-0.005050493404269218,0.0206574983894825,-0.03728776425123215,-0.007831335999071598,-0.00624682754278183,-0.006523072719573975,XArbitraryZVertical,0.009135526044971819,-0.00520959226071696,0.1237874687502275,0.9922530499182312,-0.01260019466280937,-0.01683974266052246,-0.9997788071632385,0,0,0,-1,-1,,,,,,,,,,,,,,,,,,1,0.71
2021-12-13 16:05:40.239 -0500,,,,,,,,,,16214.64655916667,-0.0296630859375,-0.00762939453125,-1.013214111328125,16214.64159016667,0.2479143771450905,-0.01242396268463458,0.0168211543032124,0.008519643917679787,0.01673785969614983,-0.05259774252772331,-0.003813479095697403,-0.004694553092122078,-0.006932497024536133,XArbitraryZVertical,0.009113801544947089,-0.005124208594713305,0.1235813853129193,0.9922793774756392,-0.01242188550531864,-0.01682036183774471,-0.9997813701629639,0,0,0,-1,-1,,,,,,,,,,,,,,,,,,1,0.71
2021-12-13 16:05:40.249 -0500,,,,,,,,,,16214.65649816667,-0.03411865234375,-0.0014190673828125,-1.015396118164062,16214.65152916667,0.2468895773665907,-0.0122061970851776,0.01697222971102344,0.0250333733856678,0.01721915788948536,-0.157643735408783,-0.01005844958126545,0.001209063455462456,-0.009541630744934082,XArbitraryZVertical,0.009172733079941204,-0.005011524502880421,0.1230733876124856,0.9923424857328724,-0.01220413576811552,-0.01697141490876675,-0.9997814893722534,0,0,0,-1,-1,,,,,,,,,,,,,,,,,,1,0.71
2021-12-13 16:05:40.259 -0500,,,,,,,,,,16214.66643716667,-0.011993408203125,-0.03656005859375,-1.002883911132812,16214.66146816667,0.2452247202604273,-0.01195988412832603,0.01722657945020949,0.01832886412739754,0.02794370613992214,-0.1554721891880035,-0.0242512933909893,0.01621862687170506,-0.01703506708145142,XArbitraryZVertical,0.009279715293883831,-0.0048813726801473,0.1222475346672054,0.9924441870804642,-0.01195782423019409,-0.0172257274389267,-0.9997801184654236,0,0,0,-1,-1,,,,,,,,,,,,,,,,,,1,0.71
2021-12-13 16:05:40.269 -0500,,,,,,,,,,16214.67637616667,-0.0154266357421875,-0.0230560302734375,-1.0037841796875,16214.67140716667,0.2439428728553535,-0.01170624318898794,0.01741234941933091,0.01574613153934479,0.02044724114239216,-0.1216836050152779,-0.01274038944393396,-0.0008380617946386337,-0.009253263473510742,XArbitraryZVertical,0.009353350028384909,-0.004750141478316151,0.1216119531894204,0.992522329847057,-0.01170420087873936,-0.01741147041320801,-0.9997798800468445,0,0,0,-1,-1,,,,,,,,,,,,,,,,,,1,0.71
2021-12-13 16:05:40.279 -0500,,,,,,,,,,16214.68631516667,-0.022125244140625,-0.007904052734375,-1.009536743164062,16214.68134616667,0.2421778573940594,-0.01154776578123506,0.01757462467084711,0.002902237698435783,0.01521625928580761,-0.2402302175760269,0.003519590012729168,-0.01979507692158222,0.0002214312553405762,XArbitraryZVertical,0.009420125798552923,-0.004669934928170284,0.1207361854319093,0.9926290072320765,-0.01154572609812021,-0.01757371984422207,-0.9997789263725281,0,0,0,-1,-1,,,,,,,,,,,,,,,,,,1,0.71
2021-12-13 16:05:40.289 -0500,,,,,,,,,,16214.69625416667,-0.0087127685546875,-0.02606201171875,-1.002105712890625,16214.69128516667,0.2396198534963247,-0.01140761109274576,0.01764931722051781,0.002568277530372143,0.01370754651725292,-0.2470352649688721,-0.01079596299678087,0.008889833465218544,-0.009955883026123047,XArbitraryZVertical,0.009442850139251077,-0.004607942636742014,0.11946692722073,0.9927825902418739,-0.0114055871963501,-0.01764840073883533,-0.999779224395752,0,0,0,-1,-1,,,,,,,,,,,,,,,,,,1,0.71
2021-12-13 16:05:40.299 -0500,,,,,,,,,,16214.70619316667,-0.02972412109375,-0.0062255859375,-1.013031005859375,16214.70122416667,0.2373575209642058,-0.01131177640952706,0.01762297958423432,-0.0004826397635042667,0.01136289909482002,-0.2402849495410919,-0.003781176172196865,-0.0004291031509637833,-0.006414294242858887,XArbitraryZVertical,0.009418886161693021,-0.004572603048104701,0.1183443945540771,0.9929173663834245,-0.0113097783178091,-0.01762206666171551,-0.9997807741165161,0,0,0,-1,-1,,,,,,,,,,,,,,,,,,1,0.71
2021-12-13 16:05:40.309 -0500,,,,,,,,,,16214.71613216667,-0.05133056640625,0.022735595703125,-1.02642822265625,16214.71116316667,0.2339111849723236,-0.01120693877311788,0.01800369901502804,0.04977813363075256,-0.004508773796260357,-0.4711702167987823,-0.002116047777235508,-0.004000468179583549,-0.0003316402435302734,XArbitraryZVertical,0.00959392677468163,-0.004514547287181687,0.1166324925885895,0.9931184949077005,-0.01120488811284304,-0.01800272613763809,-0.9997751712799072,0,0,0,-1,-1,,,,,,,,,,,,,,,,,,1,0.71
2021-12-13 16:05:40.319 -0500,,,,,,,,,,16214.72607116667,-0.01708984375,-0.0196075439453125,-1.003509521484375,16214.72110216667,0.2284991345003101,-0.01121511490204844,0.01860027607376704,0.05160826072096825,-0.00795889925211668,-0.5761632323265076,-0.03567733243107796,0.03230157494544983,-0.02664881944656372,XArbitraryZVertical,0.009878465563075334,-0.004510534742530615,0.1139426477223608,0.9934279765241714,-0.01121293939650059,-0.01859920285642147,-0.9997641444206238,0,0,0,-1,-1,,,,,,,,,,,,,,,,,,1,0.71
2021-12-13 16:05:40.329 -0500,,,,,,,,,,16214.73601016667,-0.021759033203125,-0.0203399658203125,-1.009048461914062,16214.73104116667,0.2231765691960167,-0.01110530883519237,0.01913092127232198,0.05031955614686012,0.01006307639181614,-0.5110222101211548,-0.02739488892257214,0.02813241630792618,-0.0157170295715332,XArbitraryZVertical,0.01012397171912796,-0.004452692025871756,0.1112972583330187,0.9937255713515354,-0.01110304798930883,-0.01912975497543812,-0.9997553825378418,0,0,0,-1,-1,,,,,,,,,,,,,,,,,,1,0.71
2021-12-13 16:05:40.339 -0500,,,,,,,,,,16214.74594916667,-0.039825439453125,-0.004791259765625,-1.017715454101562,16214.74098016667,0.2175775226976618,-0.01103662019936322,0.01970003345842052,0.06439276039600372,-0.01090558804571629,-0.6210408210754395,0.002657167613506317,-0.01432836428284645,-0.0006669163703918457,XArbitraryZVertical,0.01039059390374737,-0.004415968634417479,0.1085133496457169,0.9940308771605736,-0.01103425491601229,-0.01969875954091549,-0.9997450709342957,0,0,0,-1,-1,,,,,,,,,,,,,,,,,,1,0.71
2021-12-13 16:05:40.349 -0500,,,,,,,,,,16214.75588816667,-0.020416259765625,-0.0363311767578125,-1.007354736328125,16214.75091916667,0.2111930674218835,-0.01107503446644077,0.0204532778709433,0.07306241244077682,-0.009364217519760132,-0.6457056403160095,-0.02528921514749527,0.01927690394222736,-0.01571232080459595,XArbitraryZVertical,0.01075296460753928,-0.004428499839507906,0.105336953972256,0.9943686225034697,-0.0110724912956357,-0.02045185118913651,-0.9997295141220093,0,0,0,-1,-1,,,,,,,,,,,,,,,,,,1,0.71
2021-12-13 16:05:40.359 -0500,,,,,,,,,,16214.76582716667,-0.0193939208984375,-0.0200042724609375,-1.00762939453125,16214.76085816667,0.2049087434342178,-0.0109348450116883,0.02134086393717133,0.08620937168598175,0.01371393725275993,-0.6431183815002441,-0.02195056527853012,-0.00125904381275177,-0.01612609624862671,XArbitraryZVertical,0.01117326515398115,-0.004347131643871169,0.1022098423724876,0.9946905877933179,-0.01093213725835085,-0.02133924327790737,-0.9997125267982483,0,0,0,-1,-1,,,,,,,,,,,,,,,,,,1,0.71
2021-12-13 16:05:40.368 -0500,,,,,,,,,,16214.77576616667,-0.05133056640625,0.0031890869140625,-1.034500122070312,16214.77079716667,0.1973590604418391,-0.01033607438350093,0.02249096114570395,0.1389844417572021,0.07102972269058228,-0.9022838473320007,-0.00306395161896944,-0.01172116212546825,-0.002625644207000732,XArbitraryZVertical,0.01169950554048203,-0.004034686817408941,0.09845408216826554,0.9950646092489305,-0.01033327635377645,-0.02248906530439854,-0.9996936917304993,0,0,0,-1,-1,,,,,,,,,,,,,,,,,,1,0.71
2021-12-13 16:05:40.378 -0500,,,,,,,,,,16214.78570516667,-0.0442352294921875,-0.0151824951171875,-1.015869140625,16214.78073616667,0.1874735027801042,-0.009554953118723572,0.02420804711393644,0.1751765310764313,0.02848413027822971,-1.042818307876587,-0.0265045203268528,0.02055880986154079,-0.02244859933853149,XArbitraryZVertical,0.01249759025875778,-0.003623246198678248,0.09353405118457439,0.9955309791865611,-0.009552008472383022,-0.02420568279922009,-0.999661386013031,0,0,0,-1,-1,,,,,,,,,,,,,,,,,,1,0.71
2021-12-13 16:05:40.388 -0500,,,,,,,,,,16214.79564416667,-0.012298583984375,-0.0426177978515625,-1.000137329101562,16214.79067516667,0.1775571572856824,-0.00921695764305375,0.0259680460687138,0.1582406908273697,0.001905914396047592,-0.9558055996894836,-0.04692337661981583,0.02454604022204876,-0.03166007995605469,XArbitraryZVertical,0.01334095006006395,-0.003438781515650092,0.08859399513503591,0.9959724864809388,-0.009213719516992569,-0.0259651280939579,-0.9996203780174255,0,0,0,-1,-1,,,,,,,,,,,,,,,,,,1,0.71
2021-12-13 16:05:40.398 -0500,,,,,,,,,,16214.80558316667,-0.0157623291015625,-0.025970458984375,-1.003372192382812,16214.80061416667,0.1678454769575281,-0.008910554225434172,0.02755083977674386,0.1420478671789169,0.001284332945942879,-1.030156850814819,-0.01633099280297756,-0.006205108016729355,-0.003303110599517822,XArbitraryZVertical,0.01409979107424232,-0.003284494655550487,0.08375431993695581,0.996381279279706,-0.008907054550945759,-0.02754735387861729,-0.9995808005332947,0,0,0,-1,-1,,,,,,,,,,,,,,,,,,1,0.71
2021-12-13 16:05:40.408 -0500,,,,,,,,,,16214.81552216667,0.0135498046875,-0.038177490234375,-0.98638916015625,16214.81055316667,0.1573311372911101,-0.008605383527286811,0.02870188376794365,0.06907885521650314,0.007576150819659233,-1.047337889671326,-0.005146446637809277,-0.006229447200894356,-0.003409087657928467,XArbitraryZVertical,0.0146440267719087,-0.003161218747094002,0.07851408797500166,0.9968004032945802,-0.008601733483374119,-0.02869794331490993,-0.9995511174201965,0,0,0,-1,-1,,,,,,,,,,,,,,,,,,1,0.71
2021-12-13 16:05:40.418 -0500,,,,,,,,,,16214.82546116667,-0.023345947265625,-0.0030670166015625,-1.0120849609375,16214.82049216667,0.1471774047649576,-0.008099905366548791,0.02928605208442479,0.03518534079194069,0.04095941036939621,-1.042023539543152,0.006753559224307537,-0.001281511038541794,0.003047943115234375,XArbitraryZVertical,0.01490048331430265,-0.002962006042176521,0.07345467742271941,0.9971828337781194,-0.008096343837678432,-0.0292818658053875,-0.9995384216308594,0,0,0,-1,-1,,,,,,,,,,,,,,,,,,1,0.71
2021-12-13 16:05:40.428 -0500,,,,,,,,,,16214.83540016667,-0.0330963134765625,0.0076446533203125,-1.026046752929688,16214.83043116667,0.1357643044556694,-0.007209251885383133,0.02987620123498045,0.07427947968244553,0.06617065519094467,-1.244175672531128,0.00880813505500555,0.001963408663868904,0.00932389497756958,XArbitraryZVertical,0.01514751999535585,-0.002582707519122656,0.06776830427279203,0.9975827178466754,-0.007205972447991371,-0.02987175621092319,-0.9995277523994446,0,0,0,-1,-1,,,,,,,,,,,,,,,,,,1,0.71
2021-12-13 16:05:40.438 -0500,,,,,,,,,,16214.84533916667,0.00048828125,-0.0007171630859375,-0.999237060546875,16214.84037016667,0.1235008506474739,-0.006105667600007234,0.03076861857650666,0.07792827486991882,0.07535882294178009,-1.204547882080078,-0.03408892080187798,0.04326068982481956,-0.0293615460395813,XArbitraryZVertical,0.01554268283254926,-0.002097307805878162,0.06165672903869579,0.9979741143490938,-0.006102739833295345,-0.03076376393437386,-0.9995080232620239,0,0,0,-1,-1,,,,,,,,,,,,,,,,,,1,0.71
2021-12-13 16:05:40.448 -0500,,,,,,,,,,16214.85527816667,0.0048370361328125,0.029205322265625,-1.008529663085938,16214.85030916667,0.1109219992027761,-0.00502932991746831,0.03137974113794065,0.03214960545301437,0.06318381428718567,-1.378893136978149,-0.008736604824662209,0.02740728855133057,-0.01133865118026733,XArbitraryZVertical,0.01580443105643073,-0.001640795367580902,0.0553861809559191,0.9983385729144905,-0.005026832688599825,-0.03137459233403206,-0.9994950294494629,0,0,0,-1,-1,,,,,,,,,,,,,,,,,,1,0.71
2021-12-13 16:05:40.458 -0500,,,,,,,,,,16214.86521716667,0.033935546875,-0.012359619140625,-0.9940338134765625,16214.86024816667,0.09562497113132808,-0.003958534133855039,0.03150155108546237,-0.03089141100645065,0.05872595682740211,-1.660126090049744,0.006886238232254982,0.0491202212870121,-0.001800954341888428,XArbitraryZVertical,0.01582668021217967,-0.00122399440826081,0.04775711111767459,0.9987328268468368,-0.003956560045480728,-0.03149634227156639,-0.9994960427284241,0,0,0,-1,-1,,,,,,,,,,,,,,,,,,1,0.71
2021-12-13 16:05:40.468 -0500,,,,,,,,,,16214.87515616667,0.036407470703125,-0.0420074462890625,-0.9829254150390625,16214.87018716667,0.07932963781007833,-0.00290509044507576,0.03062136719845948,-0.1639021933078766,0.04553058743476868,-1.599241375923157,0.01930691301822662,0.04631785303354263,-0.00799560546875,XArbitraryZVertical,0.01535562055561974,-0.000844120197192982,0.03962750902910493,0.9990961494022169,-0.002903724554926157,-0.03061658143997192,-0.9995269775390625,0,0,0,-1,-1,,,,,,,,,,,,,,,,,,1,0.71
2021-12-13 16:05:40.478 -0500,,,,,,,,,,16214.88509516667,0.0020599365234375,-0.034637451171875,-1.005264282226562,16214.88012616667,0.06347872615909171,-0.001989045692100824,0.02863942960942458,-0.2106153666973114,0.04176568239927292,-1.610859513282776,0.04629974439740181,-0.00690222904086113,0.01853936910629272,XArbitraryZVertical,0.0143435644544267,-0.0005395132835227009,0.03171653377180579,0.9993937613205448,-0.00198822864331305,-0.02863551490008831,-0.9995879530906677,0,0,0,-1,-1,,,,,,,,,,,,,,,,,,1,0.71
2021-12-13 16:05:40.488 -0500,,,,,,,,,,16214.89503416667,0.04168701171875,-0.0443115234375,-0.986053466796875,16214.89006516667,0.04748750598262656,-0.001067851254502098,0.02679142544493241,-0.1708423942327499,0.06278137862682343,-1.546926379203796,0.01660090684890747,-0.01120618917047977,0.004157185554504395,XArbitraryZVertical,0.01340420912839324,-0.0002157021734883858,0.02373223778728201,0.9996284910751994,-0.00106746784877032,-0.02678821980953217,-0.9996405839920044,0,0,0,-1,-1,,,,,,,,,,,,,,,,,,1,0.71
2021-12-13 16:05:40.498 -0500,,,,,,,,,,16214.90497316667,0.0083465576171875,-0.028778076171875,-0.9952392578125,16214.90000416667,0.03384638510602407,0.0001891252338138584,0.0252192235939582,-0.1681603193283081,0.1056753247976303,-1.236957669258118,0.01415418833494186,-0.01038222759962082,-0.000546872615814209,XArbitraryZVertical,0.01260587129623148,0.0003079205702796419,0.01692223073682643,0.9997773420109762,0.0001890650892164558,-0.02521654963493347,-0.9996820092201233,0,0,0,-1,-1,,,,,,,,,,,,,,,,,,1,0.71
2021-12-13 16:05:40.508 -0500,,,,,,,,,,16214.91491216667,-0.0257568359375,0.004150390625,-1.0262451171875,16214.90994316667,0.02107661087713843,0.00156793129999227,0.02309628998040256,-0.2343278974294662,0.1170084401965141,-1.369042873382568,0.04045518487691879,-0.02541347779333591,0.02143007516860962,XArbitraryZVertical,0.01153898184929303,0.0009055625785985042,0.01054645644918092,0.9998774577837835,0.001567512517794967,-0.02309423685073853,-0.9997320771217346,0,0,0,-1,-1,,,,,,,,,,,,,,,,,,1,0.71
2021-12-13 16:05:40.518 -0500,,,,,,,,,,16214.92485116667,0.0166168212890625,-0.0208740234375,-1.007583618164062,16214.91988216667,0.007290078638684916,0.003295685516853146,0.02151736261403136,-0.08366541564464569,0.1574517339468002,-1.348373055458069,-0.02503869868814945,0.01886064931750298,-0.02097362279891968,XArbitraryZVertical,0.0107523813618184,0.001686950581101057,0.003662543414583681,0.999934082385472,0.003294916590675712,-0.02151570282876492,-0.9997630715370178,0,0,0,-1,-1,,,,,,,,,,,,,,,,,,1,0.71
2021-12-13 16:05:40.528 -0500,,,,,,,,,,16214.93479016667,0.0158843994140625,0.0022430419921875,-1.001495361328125,16214.92982116667,-0.004948615016016109,0.004864811111892236,0.02061551273969486,-0.1045744270086288,0.1027865260839462,-1.133997201919556,-0.01079943496733904,0.0107873696833849,-0.01612395048141479,XArbitraryZVertical,0.01031352972386239,0.002406762427504771,-0.002449094059928752,0.9999409433429545,0.004863758105784655,-0.02061405219137669,-0.9997756481170654,0,0,0,-1,-1,,,,,,,,,,,,,,,,,,1,0.71
2021-12-13 16:05:40.537 -0500,,,,,,,,,,16214.94472916667,0.0167694091796875,0.0008087158203125,-1.013961791992188,16214.93976016667,-0.01611655834901527,0.005975430768314257,0.01940442789023121,-0.114811085164547,0.08517663180828094,-1.135507464408875,0.01648665964603424,0.005990711972117424,-0.001731991767883301,XArbitraryZVertical,0.009725778227383478,0.002909292701938123,-0.008028791032947546,0.9999161986824627,0.005974270403385162,-0.01940320990979671,-0.9997938871383667,0,0,0,-1,-1,,,,,,,,,,,,,,,,,,1,0.71
2021-12-13 16:05:40.547 -0500,,,,,,,,,,16214.95466816667,0.03857421875,-0.014251708984375,-0.9977569580078125,16214.94969916667,-0.02732032813255465,0.007014657179139351,0.01825852446864934,-0.1056458130478859,0.074402816593647,-1.096547842025757,0.005422476213425398,0.02564273960888386,-0.009621202945709229,XArbitraryZVertical,0.009176134394214967,0.00338214710276282,-0.01362706981653937,0.9998593482440884,0.00701343035325408,-0.0182575099170208,-0.9998087286949158,0,0,0,-1,-1,,,,,,,,,,,,,,,,,,1,0.71
2021-12-13 16:05:40.557 -0500,,,,,,,,,,16214.96460716667,0.02099609375,-0.001861572265625,-0.9984283447265625,16214.95963816667,-0.03786693311130372,0.007853361586130161,0.0171343590392179,-0.1058053374290466,0.0577428787946701,-1.054462671279907,0.02022403851151466,0.007947703823447227,-0.008219003677368164,XArbitraryZVertical,0.008639811164397595,0.003763629225205756,-0.0188978598678095,0.9997770435096334,0.007852127775549889,-0.01713352091610432,-0.9998223781585693,0,0,0,-1,-1,,,,,,,,,,,,,,,,,,1,0.71
2021-12-13 16:05:40.567 -0500,,,,,,,,,,16214.97454616667,0.020294189453125,-0.0065460205078125,-1.007049560546875,16214.96957716667,-0.04885487186744072,0.008568203560142356,0.01602726761710015,-0.1053765714168549,0.04550662264227867,-1.146890997886658,0.02814564108848572,0.007695259526371956,0.007510066032409668,XArbitraryZVertical,0.008115719131875143,0.004086943806555034,-0.02438967719973337,0.9996612548887804,0.008566997945308685,-0.01602658070623875,-0.9998348355293274,0,0,0,-1,-1,,,,,,,,,,,,,,,,,,1,0.71
2021-12-13 16:05:40.577 -0500,,,,,,,,,,16214.98448516667,0.0325775146484375,-0.034820556640625,-0.9825592041015625,16214.97951616667,-0.05939674844815414,0.009020016783727308,0.01458458295827408,-0.1742701530456543,0.01304774917662144,-0.9464926719665527,0.001738504506647587,0.01470611244440079,-0.009470105171203613,XArbitraryZVertical,0.007422853274582805,0.004291351225973452,-0.02966004371399816,0.9995232760812301,0.009018935263156891,-0.01458406634628773,-0.9998529553413391,0,0,0,-1,-1,,,,,,,,,,,,,,,,,,1,0.71
2021-12-13 16:05:40.587 -0500,,,,,,,,,,16214.99442516667,-0.0072021484375,-0.024749755859375,-1.00592041015625,16214.98945516667,-0.06821982973151508,0.009207236248384836,0.01239308490282996,-0.2483065575361252,0.007577881217002869,-0.8705846071243286,0.02477491833269596,-0.009381549432873726,0.008807241916656494,XArbitraryZVertical,0.006349828037541977,0.004389516886902305,-0.03407377654865153,0.9993894658264222,0.009206399321556091,-0.01239276770502329,-0.999880850315094,0,0,0,-1,-1,,,,,,,,,,,,,,,,,,1,0.71
2021-12-13 16:05:40.597 -0500,,,,,,,,,,16215.00436316667,-0.008026123046875,-0.0567626953125,-1.001113891601562,16214.99939416667,-0.0766782949888507,0.009486979876613953,0.009566265099886574,-0.3074886500835419,0.02270144037902355,-0.8011019229888916,0.004689005203545094,-0.01908991113305092,0.007355570793151855,XArbitraryZVertical,0.004961360252326821,0.004556599062614946,-0.03830621823948629,0.999243236287548,0.009486403316259384,-0.009566118940711021,-0.9999092221260071,0,0,0,-1,-1,,,,,,,,,,,,,,,,,,1,0.71
2021-12-13 16:05:40.607 -0500,,,,,,,,,,16215.01430316667,-0.0033416748046875,-0.0756988525390625,-0.9967803955078125,16215.00933316667,-0.08341887578139405,0.009556275057133778,0.00600082585378933,-0.3855861127376556,-0.02027175761759281,-0.570450484752655,-0.02440276369452477,-0.03069662302732468,-0.007570981979370117,XArbitraryZVertical,0.003196998860273694,0.00464883481637083,-0.04168235969980127,0.9991149400099745,0.009555957280099392,-0.006000789813697338,-0.9999363422393799,0,0,0,-1,-1,,,,,,,,,,,,,,,,,,1,0.71
2021-12-13 16:05:40.617 -0500,,,,,,,,,,16215.02424216667,-0.014678955078125,-0.0520782470703125,-1.018325805664062,16215.01927216667,-0.0888834963403364,0.009327375648141662,0.002142702617971207,-0.3741773962974548,-0.028212770819664,-0.5743261575698853,-0.01166181918233633,-0.06838344782590866,0.007049560546875,XArbitraryZVertical,0.001277474892325728,0.004611466671508893,-0.04442161758888939,0.9990014722517113,0.009327218867838383,-0.002142701065167785,-0.9999542236328125,0,0,0,-1,-1,,,,,,,,,,,,,,,,,,1,0.71
2021-12-13 16:05:40.627 -0500,,,,,,,,,,16215.03418116667,0.0015869140625,-0.0466461181640625,-1.011154174804688,16215.02921116667,-0.09492483177871434,0.009065574788582031,-0.001835206772908787,-0.4271511137485504,-0.03199812397360802,-0.6160374283790588,-0.02195911854505539,-0.06920278817415237,-0.008297741413116455,XArbitraryZVertical,-0.000701505074207567,0.004571200735395543,-0.04744824942653615,0.9988629084334049,0.009065435267984867,0.001835205708630383,-0.9999572038650513,0,0,0,-1,-1,,,,,,,,,,,,,,,,,,1,0.71
2021-12-13 16:05:40.656 -0500,,,,,,,,,,16215.04412016667,-0.0063018798828125,-0.042388916015625,-1.021347045898438,16215.03915016667,-0.1003496259954959,0.00854280681140778,-0.006508435706532715,-0.4954167306423187,-0.06805013120174408,-0.4850780367851257,-0.01575993560254574,-0.05034691840410233,-0.0186123251914978,XArbitraryZVertical,-0.003035861968626766,0.004429201951479147,-0.05016692392995703,0.9987263823729532,0.008542521856725216,0.006508389953523874,-0.9999423027038574,0,0,0,-1,-1,,,,,,,,,,,,,,,,,,1,0.71
2021-12-13 16:05:40.659 -0500,,,,,,,,,,16215.05405916667,-0.02874755859375,-0.028594970703125,-1.037521362304688,16215.04908916667,-0.1048848053199435,0.007748951317687539,-0.01127018205549927,-0.4366846978664398,-0.08043982833623886,-0.4472691416740417,-0.004360934719443321,-0.05909101292490959,-0.01039320230484009,XArbitraryZVertical,-0.005424182077820773,0.004164456539126174,-0.05243894607298595,0.9986007008713884,0.007748381700366735,0.01126994378864765,-0.9999064803123474,0,0,0,-1,-1,,,,,,,,,,,,,,,,,,1,0.71
2021-12-13 16:05:40.660 -0500,,,,,,,,,,16215.06399816667,-0.01934814453125,-0.0335235595703125,-1.032180786132812,16215.05902816667,-0.1087937209976993,0.006694230803656864,-0.01516778156428331,-0.3428764641284943,-0.1304896771907806,-0.3227357566356659,-0.02665191143751144,-0.0488281175494194,-0.03259283304214478,XArbitraryZVertical,-0.007390581176853281,0.003754392536205556,-0.05439351805694669,0.9984851254615558,0.006693410687148571,0.01516720000654459,-0.9998625516891479,0,0,0,-1,-1,,,,,,,,,,,,,,,,,,1,0.71
2021-12-13 16:05:40.667 -0500,,,,,,,,,,16215.07393716667,-0.0273284912109375,0.0052490234375,-1.040008544921875,16215.06896716667,-0.111636432146164,0.004974070961723607,-0.01811471154395641,-0.2508581280708313,-0.1968126446008682,-0.2989894151687622,-0.03280527144670486,-0.04791416227817535,-0.03624820709228516,XArbitraryZVertical,-0.008904354313684757,0.002988352320176737,-0.05580926728124077,0.9983972293308435,0.00497323414310813,0.01811372116208076,-0.9998235702514648,0,0,0,-1,-1,,,,,,,,,,,,,,,,,,1,0.71
2021-12-13 16:05:40.676 -0500,,,,,,,,,,16215.08387616667,-0.021392822265625,0.018280029296875,-1.033477783203125,16215.07890616667,-0.1152670701039915,0.002753258011887765,-0.02083770110794028,-0.3291065692901611,-0.2322630435228348,-0.4043701589107513,-0.02074277400970459,-0.04146610200405121,-0.0353313684463501,XArbitraryZVertical,-0.01032206244559854,0.001974399883887937,-0.05761277573453898,0.9982836252392515,0.002752656815573573,0.02083619311451912,-0.9997791051864624,0,0,0,-1,-1,,,,,,,,,,,,,,,,,,1,0.71
2021-12-13 16:05:40.686 -0500,,,,,,,,,,16215.09381516667,-0.0220794677734375,0.0043182373046875,-1.027175903320312,16215.08884516667,-0.1184356801718579,-0.0004867247895790369,-0.02517599108382486,-0.5284820199012756,-0.4132440388202667,-0.2334904372692108,-0.03082446940243244,-0.003490619361400604,-0.0421261191368103,XArbitraryZVertical,-0.01258000072914223,0.0005020621469303525,-0.05917549001760693,0.9981681483870559,-0.0004865705268457532,0.02517333254218102,-0.9996829628944397,0,0,0,-1,-1,,,,,,,,,,,,,,,,,,1,0.71
2021-12-13 16:05:40.696 -0500,,,,,,,,,,16215.10375416667,-0.1012420654296875,0.02752685546875,-1.082427978515625,16215.09878416667,-0.1219651684264342,-0.005074639918402861,-0.03065615131186862,-0.5548931360244751,-0.4618017077445984,-0.5457084774971008,-0.005898839328438044,-0.02541761100292206,-0.02465265989303589,XArbitraryZVertical,-0.01545355390492302,-0.001598176362901478,-0.06089862443740166,0.998022960876955,-0.005072233732789755,0.03065134957432747,-0.9995172619819641,0,0,0,-1,-1,,,,,,,,,,,,,,,,,,1,0.71
2021-12-13 16:05:40.706 -0500,,,,,,,,,,16215.11369316667,-0.0870513916015625,-0.0205078125,-1.079086303710938,16215.10872316667,-0.1291819636637716,-0.009906697303137873,-0.03550692263865477,-0.4319346845149994,-0.4878765046596527,-0.8289936184883118,-0.0538814514875412,-0.01546470448374748,-0.05129271745681763,XArbitraryZVertical,-0.01803495925265512,-0.003796378266640671,-0.06444736195815051,0.9977509483440478,-0.009900291450321674,0.0354994609951973,-0.9993206262588501,0,0,0,-1,-1,,,,,,,,,,,,,,,,,,1,0.71
2021-12-13 16:05:40.716 -0500,,,,,,,,,,16215.12363216667,-0.072052001953125,-0.0146484375,-1.071456909179688,16215.11866216667,-0.1372433121569502,-0.01594433877478416,-0.03952540904270153,-0.4149096310138702,-0.6655261516571045,-0.8016091585159302,-0.09254352748394012,-0.03043616563081741,-0.0932847261428833,XArbitraryZVertical,-0.02026080505594553,-0.00659681524484823,-0.06839507935376826,0.9974306958301027,-0.01593121141195297,0.03951511904597282,-0.9990919828414917,0,0,0,-1,-1,,,,,,,,,,,,,,,,,,1,0.71
2021-12-13 16:05:40.726 -0500,,,,,,,,,,16215.13357116667,-0.0879974365234375,0.051300048828125,-1.11126708984375,16215.12860116667,-0.1468026492065958,-0.0236057006780434,-0.04359686887920857,-0.4246506690979004,-0.7800210118293762,-1.129715800285339,-0.04415268450975418,-0.07561128586530685,-0.06641405820846558,XArbitraryZVertical,-0.02260184620053235,-0.01016964036529437,-0.07305634298177363,0.9970197256014234,-0.02358108013868332,0.04358305782079697,-0.9987714886665344,0,0,0,-1,-1,,,,,,,,,,,,,,,,,,1,0.71
2021-12-13 16:05:40.736 -0500,,,,,,,,,,16215.14351016667,-0.0667572021484375,0.09881591796875,-1.09820556640625,16215.13854016667,-0.1589654511576405,-0.03240589798754096,-0.04657956916345778,-0.2149949371814728,-0.8859516978263855,-1.239564061164856,-0.05259585380554199,-0.02706202119588852,-0.09439778327941895,XArbitraryZVertical,-0.02449720399128025,-0.01429793061717747,-0.07899098833310331,0.9964717348992969,-0.03236508369445801,0.04656272754073143,-0.9983909130096436,0,0,0,-1,-1,,,,,,,,,,,,,,,,,,1,0.71
2021-12-13 16:05:40.746 -0500,,,,,,,,,,16215.15344916667,-0.0854034423828125,0.1680450439453125,-1.071701049804688,16215.14847916667,-0.1707449218863965,-0.04224767911317863,-0.04654314837835609,0.129156306385994,-0.96837317943573,-1.139254093170166,-0.03485225141048431,0.02692943438887596,-0.112951397895813,XArbitraryZVertical,-0.02498013721573993,-0.01905592583143766,-0.08473697575764327,0.9959078424890789,-0.04218937456607819,0.04652634635567665,-0.9980257153511047,0,0,0,-1,-1,,,,,,,,,,,,,,,,,,1,0.71
2021-12-13 16:05:40.756 -0500,,,,,,,,,,16215.16338816667,-0.0972747802734375,0.1217498779296875,-1.06695556640625,16215.15841816667,-0.1820686265609635,-0.05236748286492369,-0.04349922470081048,0.3630119562149048,-0.9540711641311646,-1.161450505256653,-0.01460049673914909,0.09404192864894867,-0.08500289916992188,XArbitraryZVertical,-0.02402991268160596,-0.02408978009153191,-0.09028895012282882,0.9953342415295018,-0.0522940382361412,0.04348550736904144,-0.9976844787597656,0,0,0,-1,-1,,,,,,,,,,,,,,,,,,1,0.71
2021-12-13 16:05:40.766 -0500,,,,,,,,,,16215.17332716667,-0.1026763916015625,0.10919189453125,-1.03680419921875,16215.16835716667,-0.1930953539828968,-0.06218538432667393,-0.03851931037262966,0.5055661797523499,-0.931847870349884,-1.118228673934937,-0.03981423750519753,0.1208072006702423,-0.07374864816665649,XArbitraryZVertical,-0.02215573723616243,-0.02908158933232173,-0.095737376115778,0.9947350272886,-0.06209921464323997,0.0385097861289978,-0.9973267912864685,0,0,0,-1,-1,,,,,,,,,,,,,,,,,,1,0.71
2021-12-13 16:05:40.776 -0500,,,,,,,,,,16215.18326616667,-0.2116546630859375,0.058441162109375,-1.054595947265625,16215.17829616667,-0.2053570169575005,-0.07090874536462459,-0.0326479750144115,0.47821044921875,-0.7174804210662842,-1.476306319236755,-0.01561419665813446,0.06739442050457001,-0.05736583471298218,XArbitraryZVertical,-0.01985985037412618,-0.03358350209208324,-0.1018445588374539,0.994034915406064,-0.07081158459186554,0.0326421745121479,-0.9969554543495178,0,0,0,-1,-1,,,,,,,,,,,,,,,,,,1,0.71
2021-12-13 16:05:40.786 -0500,,,,,,,,,,16215.19320516667,-0.174102783203125,-0.1186065673828125,-1.044403076171875,16215.18823516667,-0.2208549556167879,-0.07726182614140049,-0.02705116428690059,0.4210078716278076,-0.4793798327445984,-1.620342493057251,-0.07952050119638443,0.08650801330804825,-0.03723776340484619,XArbitraryZVertical,-0.01768856015434042,-0.03689314886752322,-0.1095917096443062,0.9931343035671354,-0.07715674489736557,0.02704786509275436,-0.9966520071029663,0,0,0,-1,-1,,,,,,,,,,,,,,,,,,1,0.71
2021-12-13 16:05:40.796 -0500,,,,,,,,,,16215.20314416667,-0.0858154296875,-0.0448760986328125,-1.00860595703125,16215.19817416667,-0.2353764937647013,-0.08200718207766582,-0.02219382371524118,0.3018220961093903,-0.4259682893753052,-1.411999940872192,-0.1361834853887558,-0.06537440419197083,-0.06937152147293091,XArbitraryZVertical,-0.0158235260023167,-0.03940420026590601,-0.1168591143566135,0.9922403407136042,-0.0818951204419136,0.02219200134277344,-0.9963938593864441,0,0,0,-1,-1,,,,,,,,,,,,,,,,,,1,0.71
2021-12-13 16:05:40.806 -0500,,,,,,,,,,16215.21308316667,-0.0592498779296875,0.087188720703125,-1.025482177734375,16215.20811316667,-0.2510000445842529,-0.08617359297881926,-0.01835407175194228,0.2193716913461685,-0.3255918323993683,-1.874527931213379,-0.03594152629375458,-0.1364255845546722,-0.02321130037307739,XArbitraryZVertical,-0.0144875968984475,-0.04158528678611362,-0.1246572280430754,0.9912221685751226,-0.08605248481035233,0.01835304126143456,-0.9961215257644653,0,0,0,-1,-1,,,,,,,,,,,,,,,,,,1,0.71
2021-12-13 16:05:40.816 -0500,,,,,,,,,,16215.22302216667,-0.00726318359375,0.0556182861328125,-1.005386352539062,16215.21805216667,-0.2718052612979385,-0.08897642897051762,-0.01409326127660644,0.2761891782283783,-0.1785033494234085,-2.280423641204834,0.01843094080686569,0.0307985357940197,-0.0175740122795105,XArbitraryZVertical,-0.01300002574533908,-0.04310861964465163,-0.1350367689725226,0.9898169693959081,-0.08885025233030319,0.01409279461950064,-0.9959452748298645,0,0,0,-1,-1,,,,,,,,,,,,,,,,,,1,0.71
2021-12-13 16:05:40.826 -0500,,,,,,,,,,16215.23296116667,-0.0366668701171875,0.116607666015625,-0.987091064453125,16215.22799116667,-0.2944626940063016,-0.09076872279169987,-0.009235780884615826,0.2689467072486877,-0.1312501728534698,-2.357594728469849,0.06227418780326843,0.06422013789415359,-0.02913773059844971,XArbitraryZVertical,-0.01121874040851117,-0.04420071830925835,-0.1463401463463623,0.9881826278313652,-0.09064026921987534,0.00923564936965704,-0.995840847492218,0,0,0,-1,-1,,,,,,,,,,,,,,,,,,1,0.71
2021-12-13 16:05:40.836 -0500,,,,,,,,,,16215.24290016667,-0.0854644775390625,0.11737060546875,-0.9990997314453125,16215.23793016667,-0.3183530936524649,-0.0916409279791579,-0.004580730674045138,0.2308967858552933,-0.0057103605940938,-2.496371507644653,0.07832816243171692,0.06838678568601608,0.005406498908996582,XArbitraryZVertical,-0.009519258958623131,-0.0448626089055143,-0.1582348638178358,0.9863358249517467,-0.09151175618171692,0.004580714739859104,-0.9957934617996216,0,0,0,-1,-1,,,,,,,,,,,,,,,,,,1,0.71
2021-12-13 16:05:40.846 -0500,,,,,,,,,,16215.25283916667,-0.0713958740234375,0.065704345703125,-0.98370361328125,16215.24786916667,-0.3418149510686138,-0.09122156322819112,0.0002398861193160688,0.3245830833911896,0.08041104674339294,-2.218722820281982,0.02568066865205765,0.1393084675073624,0.004356563091278076,XArbitraryZVertical,-0.007636567594923267,-0.04495106554989571,-0.169905180747141,0.9844050700895389,-0.09109509736299515,-0.0002398861106485128,-0.9958421587944031,0,0,0,-1,-1,,,,,,,,,,,,,,,,,,1,0.71
2021-12-13 16:05:40.855 -0500,,,,,,,,,,16215.26277816667,-0.1312408447265625,0.09722900390625,-0.9848785400390625,16215.25780816667,-0.361328779344634,-0.09011268557844532,0.005855527175326663,0.4203825891017914,0.1368948221206665,-1.856613278388977,0.005653917789459229,0.08773413300514221,-0.001282095909118652,XArbitraryZVertical,-0.00521590688430153,-0.04483337786432477,-0.1796297807186509,0.9826983286802541,-0.08998923748731613,-0.00585549371317029,-0.9959255456924438,0,0,0,-1,-1,,,,,,,,,,,,,,,,,,1,0.71
2021-12-13 16:05:40.868 -0500,,,,,,,,,,16215.27271716667,-0.1671295166015625,-0.0026702880859375,-1.037460327148438,16215.26774716667,-0.3796421664790885,-0.08829612712258707,0.01205042306320041,0.5196196436882019,0.1779372692108154,-1.921167135238647,0.004907839000225067,0.09081597626209259,0.02166688442230225,XArbitraryZVertical,-0.002415956339959821,-0.04447595175635997,-0.1887570741897689,0.9810130987651405,-0.08817504346370697,-0.01205013133585453,-0.9960321187973022,0,0,0,-1,-1,,,,,,,,,,,,,,,,,,1,0.71
2021-12-13 16:05:40.876 -0500,,,,,,,,,,16215.28265616667,-0.1068878173828125,-0.0984649658203125,-0.999725341796875,16215.27768616667,-0.3970621911335285,-0.08685270175845203,0.01951352279589226,0.6496239900588989,0.03012730181217194,-1.694560885429382,-0.08627711236476898,0.09231194108724594,-0.02432948350906372,XArbitraryZVertical,0.0009940855546565167,-0.04448041277920364,-0.1974494112289814,0.9793029362979254,-0.08672703802585602,-0.01951228454709053,-0.9960409998893738,0,0,0,-1,-1,,,,,,,,,,,,,,,,,,1,0.71
2021-12-13 16:05:40.886 -0500,,,,,,,,,,16215.29259516667,-0.063720703125,-0.102813720703125,-1.002120971679688,16215.28762516667,-0.413911420701593,-0.08643325078733896,0.02745917334996203,0.6217628121376038,0.009331740438938141,-1.878588438034058,-0.04764851182699203,-0.05321751907467842,-0.02200716733932495,XArbitraryZVertical,0.004547026375684693,-0.04509572870566853,-0.2058508038466269,0.977533227892098,-0.08629313111305237,-0.02745572291314602,-0.9958913922309875,0,0,0,-1,-1,,,,,,,,,,,,,,,,,,1,0.71
2021-12-13 16:05:40.897 -0500,,,,,,,,,,16215.30253416667,0.02532958984375,-0.252227783203125,-0.958587646484375,16215.29756416667,-0.4314729771909269,-0.08541157524097258,0.03454087746556068,0.4787521362304688,0.08188743889331818,-1.640369772911072,-0.004678413271903992,-0.04163789004087448,-0.003675103187561035,XArbitraryZVertical,0.007716118722682724,-0.0453904040411854,-0.2145600370685458,0.9756249596189215,-0.08525688201189041,-0.03453401103615761,-0.9957603216171265,0,0,0,-1,-1,,,,,,,,,,,,,,,,,,1,0.71
2021-12-13 16:05:40.905 -0500,,,,,,,,,,16215.31247316667,-0.0287017822265625,-0.154144287109375,-0.9417572021484375,16215.30750316667,-0.4446914190078882,-0.08400577228313015,0.03898326758495686,0.1757328659296036,0.09234274178743362,-1.164479494094849,0.06663134694099426,-0.1521734893321991,0.004322469234466553,XArbitraryZVertical,0.009735916560953715,-0.04524326500610201,-0.2210801038702956,0.9741570288740564,-0.08384325355291367,-0.03897339478135109,-0.9957165122032166,0,0,0,-1,-1,,,,,,,,,,,,,,,,,,1,0.71
2021-12-13 16:05:40.916 -0500,,,,,,,,,,16215.32241216667,-0.0888519287109375,-0.061920166015625,-0.9781341552734375,16215.31744216667,-0.4572608054311479,-0.08219655092419198,0.04077200509231106,0.002058814745396376,0.1895859241485596,-1.434934854507446,0.1044814810156822,-0.1873887330293655,0.06127095222473145,XArbitraryZVertical,0.01052726051029792,-0.04462536002917865,-0.2272210798889172,0.972763272618465,-0.08203579485416412,-0.04076071083545685,-0.9957954883575439,0,0,0,-1,-1,,,,,,,,,,,,,,,,,,1,0.71
2021-12-13 16:05:40.925 -0500,,,,,,,,,,16215.33235116667,-0.042144775390625,0.0092010498046875,-0.9641571044921875,16215.32738116667,-0.4725021567383586,-0.07882957204441293,0.04233563027138854,0.08217255771160126,0.3485336005687714,-1.585785031318665,-0.0009124353528022766,-0.05072513222694397,0.03207314014434814,XArbitraryZVertical,0.01134135250375305,-0.0432517366358239,-0.234636179179083,0.9710544022584827,-0.07867739349603653,-0.04232298582792282,-0.9960013031959534,0,0,0,-1,-1,,,,,,,,,,,,,,,,,,1,0.71
2021-12-13 16:05:40.935 -0500,,,,,,,,,,16215.34229016667,-0.048919677734375,0.1031646728515625,-0.958160400390625,16215.33732016667,-0.4886545996855022,-0.07445322594889095,0.04471710028518446,0.1379183828830719,0.3967022001743317,-1.752963900566101,0.01045208424329758,0.01142276078462601,0.02096730470657349,XArbitraryZVertical,0.01267674640194268,-0.04150804371814468,-0.2424830077677832,0.9691843459018233,-0.07431010156869888,-0.04470219835639,-0.9962327480316162,0,0,0,-1,-1,,,,,,,,,,,,,,,,,,1,0.71
2021-12-13 16:05:40.945 -0500,,,,,,,,,,16215.35222916667,-0.0359649658203125,0.0309295654296875,-0.98126220703125,16215.34725916667,-0.5079649387597135,-0.06895288308908679,0.048044170056492,0.2664337456226349,0.521503746509552,-2.127436876296997,0.02826090157032013,0.1161103844642639,0.03992956876754761,XArbitraryZVertical,0.01457703322702819,-0.0393858192907844,-0.2518402761480393,0.9668571651982294,-0.06881875544786453,-0.04802569001913071,-0.9964725375175476,0,0,0,-1,-1,,,,,,,,,,,,,,,,,,1,0.71
2021-12-13 16:05:40.955 -0500,,,,,,,,,,16215.36216816667,-0.0088958740234375,-0.0134735107421875,-0.9583892822265625,16215.35719816667,-0.5281188863374523,-0.06290812226094117,0.05246315489295554,0.3270880579948425,0.463704913854599,-1.912353515625,0.01163268834352493,0.1352637708187103,0.02191734313964844,XArbitraryZVertical,0.01710154400500756,-0.03719067298026785,-0.2615788594165689,0.9643136348067023,-0.06278014183044434,-0.05243909358978271,-0.9966487884521484,0,0,0,-1,-1,,,,,,,,,,,,,,,,,,1,0.71
2021-12-13 16:05:40.965 -0500,,,,,,,,,,16215.37210716667,-0.059967041015625,-0.03875732421875,-0.9725189208984375,16215.36713716667,-0.5459569052202117,-0.05772782487555524,0.05657827561935216,0.2811999320983887,0.4198176562786102,-1.769920110702515,0.04486236348748207,0.04867453873157501,0.02847504615783691,XArbitraryZVertical,0.01944913351578987,-0.03540274401526551,-0.2701667481148768,0.9619659021065667,-0.05760344862937927,-0.0565480962395668,-0.9967367649078369,0,0,0,-1,-1,,,,,,,,,,,,,,,,,,1,0.71
2021-12-13 16:05:40.975 -0500,,,,,,,,,,16215.38204616667,-0.042388916015625,-0.1754913330078125,-0.9874420166015625,16215.37707616667,-0.5626553246914435,-0.05223003383983223,0.06025593588140952,0.2671189904212952,0.4749789237976074,-1.542234778404236,0.02080051973462105,0.05356662720441818,0.03602379560470581,XArbitraryZVertical,0.02168308799880055,-0.03343449126059761,-0.2781664079115766,0.9597059049299216,-0.05211154371500015,-0.06021948158740997,-0.9968239665031433,0,0,0,-1,-1,,,,,,,,,,,,,,,,,,1,0.71
2021-12-13 16:05:40.985 -0500,,,,,,,,,,16215.39198516667,-0.034149169921875,-0.148468017578125,-0.9653778076171875,16215.38701516667,-0.5750269464688997,-0.04713315083023598,0.06262110362065092,0.06212348490953445,0.3896167576313019,-1.011960744857788,-0.01611750945448875,-0.0494498685002327,0.007688999176025391,XArbitraryZVertical,0.02333322464882934,-0.03146082126095077,-0.2840583701132268,0.9580065765539146,-0.04702335223555565,-0.06258018314838409,-0.9969315528869629,0,0,0,-1,-1,,,,,,,,,,,,,,,,,,1,0.71
2021-12-13 16:05:40.995 -0500,,,,,,,,,,16215.40192416667,-0.0139617919921875,-0.082061767578125,-0.9835205078125,16215.39695416667,-0.5855325751431788,-0.04242964795454369,0.06255268295863792,-0.1556687653064728,0.4511584043502808,-1.149195313453674,0.01413572952151299,-0.1291995346546173,0.02995240688323975,XArbitraryZVertical,0.02381470293337538,-0.02932356776820856,-0.2890309830301254,0.9565741538509669,-0.04233396053314209,-0.06251189857721329,-0.99714595079422,0,0,0,-1,-1,,,,,,,,,,,,,,,,,,1,0.71
2021-12-13 16:05:41.005 -0500,,,,,,,,,,16215.41186316667,0.04443359375,-0.0878753662109375,-0.9659881591796875,16215.40689316667,-0.5974029520449451,-0.03669311762953669,0.06132825510204686,-0.163478747010231,0.5422053933143616,-1.167219877243042,0.0004983767867088318,-0.03275011852383614,0.02190804481506348,XArbitraryZVertical,0.02390060425023944,-0.02654582494339666,-0.2946291345931074,0.9549438753793056,-0.03661591559648514,-0.06128981709480286,-0.9974481463432312,0,0,0,-1,-1,,,,,,,,,,,,,,,,,,1,0.71
2021-12-13 16:05:41.015 -0500,,,,,,,,,,16215.42180216667,0.0205078125,-0.009674072265625,-0.9530487060546875,16215.41683216667,-0.6088995057990352,-0.03082203288981816,0.06000421195713242,-0.1870653033256531,0.4997393786907196,-1.21254551410675,0.05101010948419571,-0.03437690436840057,0.0157620906829834,XArbitraryZVertical,0.02399720628753135,-0.02368635981281969,-0.3000388093894693,0.9533308984919628,-0.03076169081032276,-0.05996821075677872,-0.9977262020111084,0,0,0,-1,-1,,,,,,,,,,,,,,,,,,1,0.71
2021-12-13 16:05:41.025 -0500,,,,,,,,,,16215.43174116667,0.0114593505859375,-0.0192718505859375,-0.987945556640625,16215.42677216667,-0.6237465985817334,-0.02437139020028868,0.05916792581118251,-0.026289202272892,0.6348192691802979,-1.753556728363037,0.06677629053592682,0.006643153727054596,0.04820084571838379,XArbitraryZVertical,0.02441329208847347,-0.02066810724057478,-0.3070281141395363,0.9511627675337596,-0.02432633377611637,-0.05913341045379639,-0.9979536533355713,0,0,0,-1,-1,,,,,,,,,,,,,,,,,,1,0.71
2021-12-13 16:05:41.034 -0500,,,,,,,,,,16215.44168016667,0.030029296875,-0.040069580078125,-0.9580535888671875,16215.43671016667,-0.6418446580188524,-0.01663867456398084,0.06028341057916437,0.1328700929880142,0.6733613610267639,-1.820252180099487,0.01975100673735142,0.06332916021347046,0.02516025304794312,XArbitraryZVertical,0.02597445009133656,-0.01739710318998344,-0.31552564641802,0.9484019878710217,-0.01660768501460552,-0.06024690344929695,-0.9980453252792358,0,0,0,-1,-1,,,,,,,,,,,,,,,,,,1,0.71
2021-12-13 16:05:41.044 -0500,,,,,,,,,,16215.45161916667,0.0055389404296875,-0.015472412109375,-0.9648590087890625,16215.44665016667,-0.6602828910461894,-0.009291117900940841,0.06153875812210443,0.06897819042205811,0.5993654727935791,-1.948552370071411,0.03802096471190453,0.01795132085680962,0.02153205871582031,XArbitraryZVertical,0.02759755544175648,-0.01436562793526409,-0.3241551195527004,0.9454920835193049,-0.00927339680492878,-0.06149992346763611,-0.9980639815330505,0,0,0,-1,-1,,,,,,,,,,,,,,,,,,1,0.71
2021-12-13 16:05:41.055 -0500,,,,,,,,,,16215.46155816667,0.0465850830078125,-0.1037750244140625,-0.9751739501953125,16215.45658916667,-0.6810552136989202,-0.001612526870506687,0.06231792003287055,0.07418759912252426,0.6899195909500122,-2.168827295303345,0.01676138304173946,0.04428746178746223,0.04206395149230957,XArbitraryZVertical,0.02909585830615972,-0.01116451900587494,-0.333845904490068,0.942112342619051,-0.001609396073035896,-0.06227759271860123,-0.9980575442314148,0,0,0,-1,-1,,,,,,,,,,,,,,,,,,1,0.71
2021-12-13 16:05:41.064 -0500,,,,,,,,,,16215.47149716667,0.0465850830078125,-0.1166839599609375,-0.940582275390625,16215.46652816667,-0.7002902714784299,0.006117642535752658,0.06251333108619946,-0.0548127219080925,0.5875714421272278,-1.621742486953735,0.009565131738781929,0.00899055227637291,0.02569222450256348,XArbitraryZVertical,0.03040395227184409,-0.007848495728676663,-0.3427752017825308,0.9388924665054784,0.006105654872953892,-0.0624726228415966,-0.9980279803276062,0,0,0,-1,-1,,,,,,,,,,,,,,,,,,1,0.71
2021-12-13 16:05:41.074 -0500,,,,,,,,,,16215.48143616667,-0.019500732421875,-0.072662353515625,-0.97711181640625,16215.47646716667,-0.714768703685169,0.01215415755967905,0.06065901283108852,-0.2705260813236237,0.4775506556034088,-1.386980295181274,0.05557175353169441,-0.06819289922714233,0.03803461790084839,XArbitraryZVertical,0.03053318237146382,-0.004917754387572044,-0.3494850824733387,0.9364313238524533,0.01213150471448898,-0.06062182039022446,-0.9980871081352234,0,0,0,-1,-1,,,,,,,,,,,,,,,,,,1,0.71
2021-12-13 16:05:41.084 -0500,,,,,,,,,,16215.49137516667,0.024200439453125,-0.072662353515625,-0.9949188232421875,16215.48640616667,-0.7289060485325805,0.0179573806400346,0.05817187590007129,-0.1493530869483948,0.5240696668624878,-1.429343223571777,-0.01469116844236851,-0.02947691455483437,0.04990535974502563,XArbitraryZVertical,0.03036956834958516,-0.001980165498363862,-0.3560292321275335,0.9339790176562123,0.0179260428994894,-0.05813907459378242,-0.9981475472450256,0,0,0,-1,-1,,,,,,,,,,,,,,,,,,1,0.71
2021-12-13 16:05:41.094 -0500,,,,,,,,,,16215.50131416667,0.050262451171875,-0.0010833740234375,-0.963714599609375,16215.49634516667,-0.7421926185361463,0.02350642362575884,0.05674663148566287,-0.1174018085002899,0.403118759393692,-1.245617628097534,-0.02801353484392166,-0.02098159492015839,-0.001641333103179932,XArbitraryZVertical,0.03069691956549509,0.0006613817755345542,-0.3621556047619446,0.9316118311315236,0.02346642501652241,-0.0567161813378334,-0.9981145262718201,0,0,0,-1,-1,,,,,,,,,,,,,,,,,,1,0.71
2021-12-13 16:05:41.104 -0500,,,,,,,,,,16215.51125316667,0.0619354248046875,0.029388427734375,-0.968292236328125,16215.50628416667,-0.7551791077591051,0.02748163740235808,0.05511474643401649,-0.1111500337719917,0.2896268367767334,-1.441781401634216,0.01734810136258602,0.01439163461327553,0.01978731155395508,XArbitraryZVertical,0.03067435667884638,0.002609977174098464,-0.3681541940359402,0.929254951807565,0.02743645384907722,-0.05508684739470482,-0.9981045722961426,0,0,0,-1,-1,,,,,,,,,,,,,,,,,,1,0.71
2021-12-13 16:05:41.114 -0500,,,,,,,,,,16215.52119216667,0.093109130859375,-0.01922607421875,-0.975433349609375,16215.51622316667,-0.7710199660338778,0.03144853404623233,0.05425164448280905,0.02505920454859734,0.3190717995166779,-1.684922933578491,0.01996400579810143,0.08138565719127655,0.0386996865272522,XArbitraryZVertical,0.03103918588130782,0.004366593976523869,-0.3754517664129192,0.9263117733192993,0.03139708936214447,-0.05422503501176834,-0.9980350136756897,0,0,0,-1,-1,,,,,,,,,,,,,,,,,,1,0.71
2021-12-13 16:05:41.124 -0500,,,,,,,,,,16215.53113116667,0.0945281982421875,-0.02093505859375,-0.9380340576171875,16215.52616216667,-0.7874704427144772,0.03517503276765425,0.0537459275749846,-0.04791007563471794,0.2549324035644531,-1.634705781936646,0.04346577450633049,0.06046442687511444,0.01989579200744629,XArbitraryZVertical,0.03155438855579176,0.005928340301441444,-0.3830062859164804,0.9231875798722706,0.03511700034141541,-0.05372005701065063,-0.997938334941864,0,0,0,-1,-1,,,,,,,,,,,,,,,,,,1,0.71
2021-12-13 16:05:41.156 -0500,,,,,,,,,,16215.54107016667,0.062530517578125,-0.070220947265625,-0.9661102294921875,16215.53610116667,-0.8046850209177662,0.03884678435376353,0.05172393696369761,-0.2253154814243317,0.318261593580246,-1.871912717819214,0.06167880445718765,0.02711894735693932,0.03941309452056885,XArbitraryZVertical,0.0313923452973203,0.007741402720173839,-0.3909079671655336,0.9198616429412377,0.03878507390618324,-0.05170087516307831,-0.9979091882705688,0,0,0,-1,-1,,,,,,,,,,,,,,,,,,1,0.71
2021-12-13 16:05:41.158 -0500,,,,,,,,,,16215.55100916667,0.0717620849609375,-0.1705322265625,-0.991485595703125,16215.54604016667,-0.8232644540533297,0.04315632742313545,0.04781790507657659,-0.4404903650283813,0.336936354637146,-1.807720065116882,0.03278834745287895,0.01877745240926743,0.05937409400939941,XArbitraryZVertical,0.03053503469194544,0.01020556053975657,-0.3994255367710263,0.916200156577066,0.04309361800551414,-0.04779968410730362,-0.9979268908500671,0,0,0,-1,-1,,,,,,,,,,,,,,,,,,1,0.71
2021-12-13 16:05:41.161 -0500,,,,,,,,,,16215.56094816667,0.037689208984375,-0.12451171875,-0.990264892578125,16215.55597916667,-0.8394562063340324,0.04665961626879873,0.04117295610137538,-0.7270534634590149,0.2150128334760666,-1.541089177131653,0.02125268802046776,-0.09221577644348145,0.007144033908843994,XArbitraryZVertical,0.02829742888306963,0.01291196374394155,-0.4068764389588082,0.9129534725577483,0.04660315811634064,-0.04116132482886314,-0.9980650544166565,0,0,0,-1,-1,,,,,,,,,,,,,,,,,,1,0.71
2021-12-13 16:05:41.164 -0500,,,,,,,,,,16215.57088716667,0.0364837646484375,-0.04779052734375,-1.017379760742188,16215.56591816667,-0.8551437676492621,0.04908779910861277,0.03306986554540043,-0.7108315825462341,0.1830505579710007,-1.738159894943237,0.008072398602962494,-0.1282826215028763,0.0148661732673645,XArbitraryZVertical,0.02521618489427516,0.01547500757990822,-0.4141117015530573,0.909745107872005,0.0490412600338459,-0.03306383639574051,-0.998249351978302,0,0,0,-1,-1,,,,,,,,,,,,,,,,,,1,0.71
2021-12-13 16:05:41.174 -0500,,,,,,,,,,16215.58082616667,0.0850830078125,-0.0212860107421875,-1.002395629882812,16215.57585716667,-0.8727380008411075,0.05178722471068734,0.02551523916671688,-0.6521787047386169,0.2467962652444839,-1.780250072479248,-0.02289284765720367,-0.0537569597363472,-0.01126348972320557,XArbitraryZVertical,0.02249980334164279,0.01807257577512186,-0.422176100297053,0.9060543606486906,0.05174722895026207,-0.02551246993243694,-0.9983342885971069,0,0,0,-1,-1,,,,,,,,,,,,,,,,,,1,0.71
2021-12-13 16:05:41.183 -0500,,,,,,,,,,16215.59076516667,0.0314178466796875,0.02337646484375,-1.00299072265625,16215.58579616667,-0.8881559913443665,0.05417602081088638,0.0183740996021471,-0.5995610356330872,0.1509933620691299,-1.417749881744385,0.009137827903032303,-0.01374670676887035,-0.01234740018844604,XArbitraryZVertical,0.01992859616314354,0.02051115671253623,-0.4292250532250649,0.9027447321407169,0.05414038151502609,-0.01837306655943394,-0.998364269733429,0,0,0,-1,-1,,,,,,,,,,,,,,,,,,1,0.71
2021-12-13 16:05:41.193 -0500,,,,,,,,,,16215.60070416667,0.01849365234375,0.0427398681640625,-1.032073974609375,16215.59573516667,-0.9021184571009121,0.05560257851470956,0.01247342509224793,-0.4114224910736084,0.1179312914609909,-1.500525712966919,0.0163603387773037,0.007803890854120255,-0.0009364485740661621,XArbitraryZVertical,0.01772806357347874,0.02229942430410172,-0.4355861191372422,0.8996961483329624,0.0555696077644825,-0.01247310172766447,-0.9983769059181213,0,0,0,-1,-1,,,,,,,,,,,,,,,,,,1,0.71
2021-12-13 16:05:41.203 -0500,,,,,,,,,,16215.61064316667,0.087432861328125,0.0347137451171875,-1.008651733398438,16215.60567416667,-0.9171267325107411,0.05729972375510788,0.008568732726387121,-0.2255336046218872,0.1839127987623215,-1.51163637638092,-0.05187990516424179,0.05220874398946762,-0.02017146348953247,XArbitraryZVertical,0.01652046345519607,0.02379054114577818,-0.44236457575718,0.8963675030000554,0.05726627260446548,-0.008568627759814262,-0.9983221888542175,0,0,0,-1,-1,,,,,,,,,,,,,,,,,,1,0.71
2021-12-13 16:05:41.214 -0500,,,,,,,,,,16215.62058216667,0.0908203125,0.065277099609375,-0.9698486328125,16215.61561316667,-0.9321760600459531,0.05894195684646846,0.006154074881100385,-0.07480747252702713,0.1316815614700317,-1.614715576171875,-0.003196865320205688,0.03824324905872345,-0.0302588939666748,XArbitraryZVertical,0.01598975279221553,0.02494126326677099,-0.4491167672954495,0.8929817573907683,0.05890671908855438,-0.006154036149382591,-0.9982445240020752,0,0,0,-1,-1,,,,,,,,,,,,,,,,,,1,0.71
2021-12-13 16:05:41.223 -0500,,,,,,,,,,16215.630522375,0.0932464599609375,-0.0355682373046875,-0.9905242919921875,16215.62555216667,-0.9506938394987665,0.06105014354111723,0.005368731172621675,0.13242506980896,0.2957920432090759,-2.10138463973999,0.03611085936427116,0.05811832100152969,0.01243537664413452,XArbitraryZVertical,0.01635313102365071,0.02590864879550396,-0.4573592381498993,0.8887541195962478,0.06101134791970253,-0.005368705373257399,-0.9981226325035095,0,0,0,-1,-1,,,,,,,,,,,,,,,,,,1,0.71
2021-12-13 16:05:41.233 -0500,,,,,,,,,,16215.640461375,0.1178741455078125,-0.1611785888671875,-1.022918701171875,16215.635492375,-0.9718318637261835,0.06446058479032817,0.005332905954862138,0.07879140973091125,0.3328062295913696,-2.044750928878784,0.02156825363636017,0.04361716285347939,0.03048646450042725,XArbitraryZVertical,0.01740605798621879,0.02724988720835124,-0.4666982700832802,0.8838253653294064,0.06441503763198853,-0.005332880653440952,-0.9979089498519897,0,0,0,-1,-1,,,,,,,,,,,,,,,,,,1,0.71
2021-12-13 16:05:41.243 -0500,,,,,,,,,,16215.650400375,0.063995361328125,-0.1516571044921875,-1.015304565429688,16215.645431375,-0.9890788515833575,0.06645041231720272,0.004124070391420018,-0.08697465807199478,0.02283962443470955,-1.45372486114502,0.04227215796709061,-0.1070057228207588,-0.02106010913848877,XArbitraryZVertical,0.01758059600179268,0.02826080999231526,-0.4743030560355613,0.8797322852061352,0.06640095263719559,-0.004124058876186609,-0.9977844953536987,0,0,0,-1,-1,,,,,,,,,,,,,,,,,,1,0.71
2021-12-13 16:05:41.253 -0500,,,,,,,,,,16215.660339375,0.0518035888671875,-0.076446533203125,-1.020828247070312,16215.655370375,-1.002692819196952,0.06587258470761295,0.001339080414423462,-0.2854144871234894,-0.1100214868783951,-1.363151073455811,0.03460846096277237,-0.1774634271860123,-0.02167040109634399,XArbitraryZVertical,0.01641336197666591,0.02855618969763024,-0.4803265849067159,0.876471079050004,0.06582489609718323,-0.001339080044999719,-0.9978302717208862,0,0,0,-1,-1,,,,,,,,,,,,,,,,,,1,0.71
2021-12-13 16:05:41.263 -0500,,,,,,,,,,16215.670278375,0.0961761474609375,-0.0373687744140625,-1.009597778320312,16215.665309375,-1.015252545204026,0.06482754065537655,-0.002549699664708448,-0.2987475991249084,-0.09829635173082352,-1.158776640892029,-0.02326275408267975,-0.108247347176075,-0.01521110534667969,XArbitraryZVertical,0.01464019365171671,0.02894082335808608,-0.4858845977031742,0.8734209510938592,0.06478193402290344,0.002549696946516633,-0.9978961944580078,0,0,0,-1,-1,,,,,,,,,,,,,,,,,,1,0.71
2021-12-13 16:05:41.273 -0500,,,,,,,,,,16215.680217375,0.097198486328125,0.101898193359375,-0.9605560302734375,16215.675248375,-1.026039323358953,0.06384841230662577,-0.005571693076620422,-0.164506196975708,-0.0834345817565918,-1.138309478759766,0.01497709006071091,-0.06857522577047348,-0.02816087007522583,XArbitraryZVertical,0.01324003677124931,0.02917628035522081,-0.4906359008813061,0.8707754118185245,0.06380405277013779,0.005571664310991764,-0.9979469180107117,0,0,0,-1,-1,,,,,,,,,,,,,,,,,,1,0.71
2021-12-13 16:05:41.283 -0500,,,,,,,,,,16215.690156375,0.1055755615234375,0.1251068115234375,-0.962249755859375,16215.685187375,-1.03919320049119,0.06352590554036752,-0.006943511011573272,0.0642865002155304,0.0375652089715004,-1.522826552391052,0.03478496521711349,0.02146839164197445,0.01584213972091675,XArbitraryZVertical,0.0127564883180206,0.02928902052164888,-0.4963722891436074,0.8675217096017147,0.0634816586971283,0.006943455431610346,-0.9979588389396667,0,0,0,-1,-1,,,,,,,,,,,,,,,,,,1,0.71
2021-12-13 16:05:41.293 -0500,,,,,,,,,,16215.700095375,0.077301025390625,0.063201904296875,-0.980499267578125,16215.695126375,-1.05511565694241,0.06424914511604694,-0.006302554232326067,0.2543427348136902,0.1195945739746094,-1.628653645515442,0.0369010791182518,0.1304009556770325,0.04196906089782715,XArbitraryZVertical,0.01344802284652068,0.02933758373845206,-0.5032499154706631,0.8635381137751564,0.06420367956161499,0.006302512716501951,-0.9979169368743896,0,0,0,-1,-1,,,,,,,,,,,,,,,,,,1,0.71
2021-12-13 16:05:41.303 -0500,,,,,,,,,,16215.710034375,0.040069580078125,-0.0276336669921875,-0.9961090087890625,16215.705065375,-1.071877614606904,0.06553432158978424,-0.004251487871658155,0.3634753525257111,0.1851160079240799,-1.751460194587708,0.03357324004173279,0.09035299718379974,0.027904212474823,XArbitraryZVertical,0.01490275581144062,0.02925268307727951,-0.5104330408990488,0.8592906310511166,0.06548683345317841,0.004251474980264902,-0.997844398021698,0,0,0,-1,-1,,,,,,,,,,,,,,,,,,1,0.71
2021-12-13 16:05:41.313 -0500,,,,,,,,,,16215.719973375,0.086273193359375,-0.1547088623046875,-1.034622192382812,16215.715004375,-1.089978916588068,0.06803776808988647,-0.002066602020665312,0.2773079872131348,0.2870900332927704,-1.772951006889343,-0.01795155555009842,0.02480410970747471,0.007190406322479248,XArbitraryZVertical,0.01674918811519483,0.02962039801742435,-0.5181389019437436,0.854619348150822,0.06798513978719711,0.002066600602120161,-0.9976841807365417,0,0,0,-1,-1,,,,,,,,,,,,,,,,,,1,0.71
2021-12-13 16:05:41.323 -0500,,,,,,,,,,16215.729912375,0.065643310546875,-0.102691650390625,-1.009719848632812,16215.724943375,-1.105936259211396,0.07007389136869778,-0.00170063188747795,0.04088104516267776,0.1037371754646301,-1.441156506538391,-0.01032406091690063,-0.1033394411206245,-0.01829421520233154,XArbitraryZVertical,0.01767501977041139,0.03025558136859522,-0.5249181373566949,0.8504311779013871,0.07001645863056183,0.00170063110999763,-0.9975444078445435,0,0,0,-1,-1,,,,,,,,,,,,,,,,,,1,0.71
2021-12-13 16:05:41.333 -0500,,,,,,,,,,16215.739851375,0.0751495361328125,0.029510498046875,-0.9659423828125,16215.734882375,-1.120438550302602,0.07028434466820725,-0.002163858528930898,0.1303438097238541,-0.02017758227884769,-1.549293041229248,0.01171337813138962,-0.1557283252477646,-0.0304710865020752,XArbitraryZVertical,0.01775373249265897,0.03033869821027904,-0.531075775331029,0.8465948926865889,0.07022632658481598,0.002163856755942106,-0.9975287318229675,0,0,0,-1,-1,,,,,,,,,,,,,,,,,,1,0.71
2021-12-13 16:05:41.343 -0500,,,,,,,,,,16215.749790375,0.1405487060546875,0.06976318359375,-0.9539947509765625,16215.744821375,-1.137772470497176,0.07055242249520635,-0.0006923789842384284,0.377709686756134,0.09393779933452606,-1.869918704032898,-0.006559543311595917,-0.03148463368415833,0.01171791553497314,XArbitraryZVertical,0.01870765841001716,0.02990046871678592,-0.5383691439738226,0.8419707019334185,0.07049389183521271,0.0006923789042048156,-0.9975119829177856,0,0,0,-1,-1,,,,,,,,,,,,,,,,,,1,0.71
2021-12-13 16:05:41.352 -0500,,,,,,,,,,16215.759729375,0.1356964111328125,0.0521087646484375,-0.94561767578125,16215.754760375,-1.154797435721612,0.07139306015280744,0.001964484242095784,0.3975598216056824,0.01740388013422489,-1.472842454910278,0.02467601746320724,0.06528844684362411,0.04115188121795654,XArbitraryZVertical,0.02030314948017443,0.02936742305866871,-0.5454688371888934,0.837370360343247,0.07133229076862335,-0.001964482944458723,-0.9974506497383118,0,0,0,-1,-1,,,,,,,,,,,,,,,,,,1,0.71
2021-12-13 16:05:41.362 -0500,,,,,,,,,,16215.769668375,0.0260772705078125,0.0712890625,-0.9731597900390625,16215.764699375,-1.170397985805117,0.07130083312069461,0.005222771718404324,0.4844332039356232,-0.007994220592081547,-1.697788238525391,0.09918597340583801,0.05817072838544846,0.04755544662475586,XArbitraryZVertical,0.02186328297353727,0.02827034809610558,-0.5519348146563541,0.8331211440667171,0.07123946398496628,-0.005222748033702374,-0.9974455833435059,0,0,0,-1,-1,,,,,,,,,,,,,,,,,,1,0.71
2021-12-13 16:05:41.372 -0500,,,,,,,,,,16215.779607375,0.0923004150390625,-0.001251220703125,-1.006362915039062,16215.774638375,-1.188710742066378,0.07244615243284326,0.009172294093079746,0.5334923267364502,0.2136835753917694,-1.811691164970398,-0.009254135191440582,0.08217019587755203,0.04613262414932251,XArbitraryZVertical,0.0240765251760169,0.02743785722819285,-0.5594639786073551,0.8280503670787807,0.07237975299358368,-0.009172165766358376,-0.9973349571228027,0,0,0,-1,-1,,,,,,,,,,,,,,,,,,1,0.71
2021-12-13 16:05:41.383 -0500,,,,,,,,,,16215.789547375,0.0352783203125,-0.0016632080078125,-0.98760986328125,16215.784577375,-1.204296220741351,0.07407515018162633,0.01225026542897583,0.3343616724014282,0.03656825423240662,-1.300313353538513,-0.02215249836444855,0.04833698272705078,-0.001230180263519287,XArbitraryZVertical,0.02601777101984416,0.02704892498475389,-0.565828095609798,0.823668607620075,0.07400187104940414,-0.01224995870143175,-0.9971828460693359,0,0,0,-1,-1,,,,,,,,,,,,,,,,,,1,0.71
2021-12-13 16:05:41.392 -0500,,,,,,,,,,16215.799485375,0.0543670654296875,-0.015625,-1.001052856445312,16215.794516375,-1.2174995089038,0.07435875412525582,0.01487321067280459,0.4159809052944183,0.04382803291082382,-1.353954672813416,0.00555197149515152,-0.0001725200563669205,-0.0003254413604736328,XArbitraryZVertical,0.02735170286717849,0.02624315100351625,-0.5712045045798856,0.819932029011296,0.07428203523159027,-0.01487266272306442,-0.9971263408660889,0,0,0,-1,-1,,,,,,,,,,,,,,,,,,1,0.71
2021-12-13 16:05:41.402 -0500,,,,,,,,,,16215.809424375,0.08038330078125,-0.0486297607421875,-1.003555297851562,16215.804455375,-1.231042311994835,0.07523193278542771,0.01839355114934742,0.4471028745174408,0.04747942090034485,-1.261474609375,-0.05258050560951233,0.02562516555190086,0.009728550910949707,XArbitraryZVertical,0.02921631835636119,0.02539762606825549,-0.5766688809703295,0.8160603029109847,0.07514826953411102,-0.01839251443743706,-0.9970027208328247,0,0,0,-1,-1,,,,,,,,,,,,,,,,,,1,0.71
2021-12-13 16:05:41.412 -0500,,,,,,,,,,16215.819364375,0.079864501953125,-0.0247650146484375,-0.974884033203125,16215.814394375,-1.242755665662376,0.07467029229250902,0.02144067572381518,0.3835223019123077,-0.2032830268144608,-1.084888577461243,0.009461656212806702,-0.02021747455000877,-0.01609253883361816,XArbitraryZVertical,0.03043880051717116,0.02411111684539491,-0.5813915252211186,0.8126967914917038,0.07458377629518509,-0.02143903262913227,-0.9969842433929443,0,0,0,-1,-1,,,,,,,,,,,,,,,,,,1,0.71
2021-12-13 16:05:41.422 -0500,,,,,,,,,,16215.829303375,0.123016357421875,0.0028228759765625,-0.9642791748046875,16215.824333375,-1.255071331970401,0.07300506531876431,0.02503682514754388,0.5092833638191223,-0.1492668241262436,-1.350006222724915,-0.0002092272043228149,-0.01839231699705124,0.00918501615524292,XArbitraryZVertical,0.03155244095944999,0.02219396120057787,-0.5863448281362615,0.8091424421852513,0.07291737198829651,-0.02503420971333981,-0.9970237612724304,0,0,0,-1,-1,,,,,,,,,,,,,,,,,,1,0.71
2021-12-13 16:05:41.432 -0500,,,,,,,,,,16215.839242375,0.092926025390625,-0.0073699951171875,-0.9727783203125,16215.834272375,-1.26919863123952,0.07215626112663902,0.02867394530131374,0.4022080898284912,-0.1286536902189255,-1.396293759346008,0.02830830216407776,0.02622859925031662,0.03283077478408813,XArbitraryZVertical,0.03292004817823391,0.020550844238603,-0.5919917599776374,0.8050091058871041,0.07206402719020844,-0.02867001667618752,-0.9969878792762756,0,0,0,-1,-1,,,,,,,,,,,,,,,,,,1,0.71
2021-12-13 16:05:41.442 -0500,,,,,,,,,,16215.849181375,0.02313232421875,0.002593994140625,-0.975433349609375,16215.844211375,-1.283693582680847,0.07079682195033028,0.03164647546977654,0.4412753283977509,-0.2138011455535889,-1.52009117603302,0.05388575792312622,0.02994745597243309,0.02929836511611938,XArbitraryZVertical,0.0338509005655243,0.01887769782340068,-0.5977772409428973,0.800724777598123,0.07070227712392807,-0.03164119273424149,-0.9969955086708069,0,0,0,-1,-1,,,,,,,,,,,,,,,,,,1,0.71
2021-12-13 16:05:41.452 -0500,,,,,,,,,,16215.859120375,0.0343780517578125,-0.041351318359375,-0.9951171875,16215.854150375,-1.30051549072291,0.06929097652148659,0.03549456109357835,0.5504699945449829,-0.2109819203615189,-1.778934478759766,-0.01886843144893646,0.0342206172645092,0.02018064260482788,XArbitraryZVertical,0.03508292620362242,0.0168284055480374,-0.6044437425896045,0.7956969873187649,0.06919193267822266,-0.0354871079325676,-0.9969719648361206,0,0,0,-1,-1,,,,,,,,,,,,,,,,,,1,0.71
2021-12-13 16:05:41.462 -0500,,,,,,,,,,16215.869059375,0.0529327392578125,-0.06781005859375,-1.008377075195312,16215.864089375,-1.321386632938877,0.06869591705426412,0.03898654206368025,0.4512142539024353,-0.005710526369512081,-2.393096446990967,-0.0439009964466095,0.02028463780879974,0.01472079753875732,XArbitraryZVertical,0.03645116624305903,0.01515501379369417,-0.6126574311750881,0.7893619891647162,0.06858973950147629,-0.03897666558623314,-0.9968832731246948,0,0,0,-1,-1,,,,,,,,,,,,,,,,,,1,0.71
2021-12-13 16:05:41.472 -0500,,,,,,,,,,16215.878998375,0.006988525390625,-0.028228759765625,-0.977935791015625,16215.874028375,-1.346205345236501,0.06932101333421428,0.04068421764872302,0.239325687289238,-0.08667328953742981,-2.520466089248657,-0.02160074561834335,-0.01888206973671913,0.00060272216796875,XArbitraryZVertical,0.03749374912355264,0.01441662852932647,-0.6223604657299179,0.7816992936431424,0.06920818984508514,-0.04067299515008926,-0.9967727661132812,0,0,0,-1,-1,,,,,,,,,,,,,,,,,,1,0.71
2021-12-13 16:05:41.482 -0500,,,,,,,,,,16215.888937375,0.105621337890625,-0.024749755859375,-1.023086547851562,16215.883967375,-1.370067292461442,0.06922034422740943,0.04213557004528157,0.4291081428527832,-0.06646082550287247,-2.149278402328491,-0.0397762805223465,-0.006750807166099548,0.006943166255950928,XArbitraryZVertical,0.03819246211663316,0.01347014290940214,-0.6316153326862016,0.7742234659075575,0.06910368800163269,-0.04212310165166855,-0.9967197775840759,0,0,0,-1,-1,,,,,,,,,,,,,,,,,,1,0.71
2021-12-13 16:05:41.492 -0500,,,,,,,,,,16215.898876375,0.0607757568359375,0.016632080078125,-1.007659912109375,16215.893906375,-1.386425430698048,0.07018711886520489,0.04734613358377803,0.847916841506958,0.0674210786819458,-1.071516513824463,-0.03341454267501831,0.01888605207204819,-0.001459002494812012,XArbitraryZVertical,0.04061065443256934,0.01186411711106136,-0.6378004712968428,0.769038648215323,0.0700509175658226,-0.04732844606041908,-0.9964200258255005,0,0,0,-1,-1,,,,,,,,,,,,,,,,,,1,0.71
2021-12-13 16:05:41.502 -0500,,,,,,,,,,16215.908815375,0.0303802490234375,-0.0238189697265625,-1.013275146484375,16215.903845375,-1.396863159982406,0.07149219969932259,0.05672697422101675,1.159198522567749,0.1004758328199387,-0.98371422290802,0.05441603064537048,0.05135596916079521,-0.03077024221420288,XArbitraryZVertical,0.04467666186480428,0.009135250867155217,-0.6415718502254437,0.7657062073523162,0.07131641358137131,-0.05669655650854111,-0.9958410859107971,0,0,0,-1,-1,,,,,,,,,,,,,,,,,,1,0.71
2021-12-13 16:05:41.511 -0500,,,,,,,,,,16215.918754375,0.1475372314453125,-0.054840087890625,-1.002517700195312,16215.913784375,-1.406930112604289,0.07379652493028717,0.06620410357779244,0.7569555044174194,0.2256526499986649,-0.8157845735549927,-0.06784598529338837,0.07653173059225082,-0.003655195236206055,XArbitraryZVertical,0.0490716859603008,0.006722969583389148,-0.6451385470833921,0.7624584773813573,0.07356804609298706,-0.06615575402975082,-0.9950935244560242,0,0,0,-1,-1,,,,,,,,,,,,,,,,,,1,0.71
2021-12-13 16:05:41.521 -0500,,,,,,,,,,16215.928693375,0.0557861328125,-0.0542755126953125,-0.996246337890625,16215.923723375,-1.412588015813203,0.07533920134682079,0.06904302108488568,-0.05109548196196556,-0.03930117562413216,-0.3084955513477325,0.02645863592624664,0.01652844995260239,-0.01899111270904541,XArbitraryZVertical,0.05066710487717702,0.006249372142281609,-0.6471830957743826,0.7606232523877187,0.07508862018585205,-0.06898818165063858,-0.9947875738143921,0,0,0,-1,-1,,,,,,,,,,,,,,,,,,1,0.71
2021-12-13 16:05:41.532 -0500,,,,,,,,,,16215.938632375,0.033966064453125,-0.0686798095703125,-1.04180908203125,16215.933662375,-1.414687915585331,0.07461379260448794,0.06821593698338139,0.01413571741431952,-0.06865853071212769,-0.1455162316560745,0.04728713631629944,0.01739704608917236,0.005640566349029541,XArbitraryZVertical,0.05012502515637255,0.006189321389016888,-0.6480206180562361,0.7599463404864768,0.07437120378017426,-0.06816304475069046,-0.9948983192443848,0,0,0,-1,-1,,,,,,,,,,,,,,,,,,1,0.71
2021-12-13 16:05:41.541 -0500,,,,,,,,,,16215.948571375,0.0290985107421875,-0.05645751953125,-1.011978149414062,16215.943601375,-1.415937811905529,0.07447251077367871,0.06869945406143277,0.03193815052509308,-0.007344341836869717,-0.126227080821991,-0.04685389250516891,0.0054282546043396,-0.03123193979263306,XArbitraryZVertical,0.0502662988060916,0.005947092637209259,-0.648486749801471,0.7595411937402538,0.07422818243503571,-0.0686454251408577,-0.9948758482933044,0,0,0,-1,-1,,,,,,,,,,,,,,,,,,1,0.71
2021-12-13 16:05:41.551 -0500,,,,,,,,,,16215.958510375,0.030609130859375,-0.042022705078125,-1.011337280273438,16215.953540375,-1.418095594946426,0.07476514508805741,0.06849623271183167,0.005890304688364267,0.05799445509910583,-0.3203526139259338,-0.03817389160394669,0.002448417246341705,-0.03667193651199341,XArbitraryZVertical,0.0502907538101818,0.006070061821660118,-0.6493036209380683,0.7588403902965267,0.07452035695314407,-0.0684426873922348,-0.9948679804801941,0,0,0,-1,-1,,,,,,,,,,,,,,,,,,1,0.71
2021-12-13 16:05:41.561 -0500,,,,,,,,,,16215.968449375,0.0765838623046875,-0.072296142578125,-1.0155029296875,16215.963479375,-1.421677056624225,0.07608912755926056,0.06895984222802967,0.1279008984565735,0.131253719329834,-0.3401158154010773,-0.05175666511058807,0.02355606853961945,-0.009352624416351318,XArbitraryZVertical,0.05090749773921137,0.006330294813315307,-0.6506161409687037,0.7576721175991745,0.07583505660295486,-0.06890519708395004,-0.9947367310523987,0,0,0,-1,-1,,,,,,,,,,,,,,,,,,1,0.71
2021-12-13 16:05:41.571 -0500,,,,,,,,,,16215.978388375,0.08990478515625,-0.077880859375,-1.001510620117188,16215.973418375,-1.424502657241592,0.07721479760119727,0.06985775490904789,0.08268681168556213,0.04851755499839783,-0.2324154376983643,-0.02609238773584366,0.01688347011804581,-0.02369135618209839,XArbitraryZVertical,0.05162213962985993,0.006390817815929353,-0.651633896176793,0.7567479523723395,0.07694994658231735,-0.06980095058679581,-0.9945886135101318,0,0,0,-1,-1,,,,,,,,,,,,,,,,,,1,0.71
2021-12-13 16:05:41.581 -0500,,,,,,,,,,16215.988327375,0.087432861328125,-0.0604248046875,-0.99566650390625,16215.983357375,-1.426943950092711,0.07771121321814242,0.0702608823964931,0.05418060719966888,0.03139949217438698,-0.260746955871582,0.01313470304012299,-0.01124832779169083,-0.01266467571258545,XArbitraryZVertical,0.05194387721793375,0.006383495702003601,-0.6525337543270068,0.7559503206973964,0.07744147628545761,-0.07020308822393417,-0.9945221543312073,0,0,0,-1,-1,,,,,,,,,,,,,,,,,,1,0.71
2021-12-13 16:05:41.591 -0500,,,,,,,,,,16215.998266375,0.092193603515625,-0.0638427734375,-0.99945068359375,16215.993296375,-1.429537704176409,0.078288688356657,0.07067635782083899,0.06479170173406601,0.04285374656319618,-0.2221276462078094,0.01047225296497345,0.002075046300888062,-0.00265270471572876,XArbitraryZVertical,0.05229729220115185,0.006397963699457875,-0.6534876242696434,0.7551013597533802,0.07801348716020584,-0.07061753422021866,-0.9944481253623962,0,0,0,-1,-1,,,,,,,,,,,,,,,,,,1,0.71
2021-12-13 16:05:41.601 -0500,,,,,,,,,,16216.008205375,0.066192626953125,-0.086639404296875,-1.012985229492188,16216.003235375,-1.430366198272676,0.07844973920017242,0.07089674938488982,-0.02191123366355896,-0.05453861877322197,0.08962158113718033,0.01048115640878677,0.01170956343412399,-0.001978874206542969,XArbitraryZVertical,0.05243556663382078,0.006364803953653444,-0.6537903415972985,0.7548299000546408,0.07817242294549942,-0.07083737105131149,-0.9944199919700623,0,0,0,-1,-1,,,,,,,,,,,,,,,,,,1,0.71
2021-12-13 16:05:41.611 -0500,,,,,,,,,,16216.018144375,0.0247650146484375,-0.07220458984375,-1.018386840820312,16216.013174375,-1.428866987233896,0.07719145990143429,0.07011682081287862,-0.1416291147470474,-0.1342238634824753,0.1178691983222961,0.01142305880784988,-0.004311956465244293,-0.01215672492980957,XArbitraryZVertical,0.05172594578978078,0.006184458312110891,-0.6532775481222184,0.7553241986286114,0.07692533731460571,-0.07005938142538071,-0.9945723414421082,0,0,0,-1,-1,,,,,,,,,,,,,,,,,,1,0.71
2021-12-13 16:05:41.621 -0500,,,,,,,,,,16216.028083375,0.074951171875,-0.0811614990234375,-1.013519287109375,16216.023113375,-1.428037574646809,0.07640630338282432,0.06858843257231387,-0.193574070930481,-0.03142957016825676,0.08355224132537842,-0.04154554754495621,-0.01502246409654617,-0.02470165491104126,XArbitraryZVertical,0.05089093527594378,0.00640982940722243,-0.653023892447425,0.7555983271504607,0.076152503490448,-0.06853466480970383,-0.9947380423545837,0,0,0,-1,-1,,,,,,,,,,,,,,,,,,1,0.71
2021-12-13 16:05:41.641 -0500,,,,,,,,,,16216.038022375,0.089141845703125,-0.06158447265625,-0.9723358154296875,16216.033052375,-1.4259856440292,0.07544775493896157,0.06536409277704096,-0.4977611005306244,-0.1511847376823425,0.2513886690139771,-0.02890479564666748,-0.008367136120796204,-0.02235394716262817,XArbitraryZVertical,0.04935514318909538,0.007154299448919084,-0.6523538883270218,0.7562720288824747,0.07521523535251617,-0.0653175562620163,-0.9950257539749146,0,0,0,-1,-1,,,,,,,,,,,,,,,,,,1,0.71
2021-12-13 16:05:41.658 -0500,,,,,,,,,,16216.047961375,0.088470458984375,-0.0067138671875,-0.9665679931640625,16216.042991375,-1.424479686291325,0.07388078887676965,0.05998482086140099,-0.5335473418235779,-0.09930585324764252,-0.09230227768421173,0.0148659273982048,-0.01813037320971489,-0.001240909099578857,XArbitraryZVertical,0.04680770279830011,0.008356600489006589,-0.6519528976883643,0.7567672650026782,0.07368084043264389,-0.05994885414838791,-0.9954783916473389,0,0,0,-1,-1,,,,,,,,,,,,,,,,,,1,0.71
2021-12-13 16:05:41.661 -0500,,,,,,,,,,16216.057900375,0.113037109375,-0.0608062744140625,-0.9946136474609375,16216.052930375,-1.426474337374094,0.07403292399447413,0.05630406338786793,-0.1715428084135056,0.07877573370933533,-0.2879391610622406,0.01086871325969696,0.02960195019841194,0.03620785474777222,XArbitraryZVertical,0.04547671743615223,0.009571726324998414,-0.6527902162292861,0.7561119389947255,0.07384810596704483,-0.05627432093024254,-0.9956805109977722,0,0,0,-1,-1,,,,,,,,,,,,,,,,,,1,0.71
2021-12-13 16:05:41.663 -0500,,,,,,,,,,16216.067839375,0.0962982177734375,-0.092529296875,-1.0018310546875,16216.062869375,-1.428549680842885,0.07464433186465672,0.05464184154519483,-0.1899388581514359,-0.00544760562479496,-0.1405004411935806,0.02822793275117874,0.02844582870602608,0.01623493432998657,XArbitraryZVertical,0.04505970677877521,0.01029996536703546,-0.6535990393823267,0.7554282355358573,0.07446373254060745,-0.05461465567350388,-0.9957270622253418,0,0,0,-1,-1,,,,,,,,,,,,,,,,,,1,0.71
2021-12-13 16:05:41.670 -0500,,,,,,,,,,16216.077778375,0.080810546875,-0.071990966796875,-0.99090576171875,16216.072808375,-1.429510910859044,0.07401697673484105,0.05186579988935279,-0.3298882246017456,-0.114955723285675,-0.1222769543528557,0.03529617190361023,-0.02941051125526428,-0.004841983318328857,XArbitraryZVertical,0.04381319639900375,0.01095128538129424,-0.6540391193337212,0.7551113916798422,0.07384996861219406,-0.05184254795312881,-0.9959209561347961,0,0,0,-1,-1,,,,,,,,,,,,,,,,,,1,0.71
2021-12-13 16:05:41.680 -0500,,,,,,,,,,16216.087717375,0.1042938232421875,-0.039154052734375,-0.99224853515625,16216.082747375,-1.430459697837319,0.07296068777128102,0.04851087343827271,-0.2977688908576965,-0.08087284862995148,-0.08890674263238907,0.00850389152765274,-0.04080259054899216,-0.00334542989730835,XArbitraryZVertical,0.04220861915560244,0.01163200262157919,-0.6544940666057736,0.7547984693239345,0.07281021773815155,-0.04849185049533844,-0.9961662292480469,0,0,0,-1,-1,,,,,,,,,,,,,,,,,,1,0.71
2021-12-13 16:05:41.690 -0500,,,,,,,,,,16216.097656375,0.030303955078125,-0.033111572265625,-1.017837524414062,16216.092686375,-1.430665223190067,0.0728912029413139,0.04655952308857633,-0.1078194826841354,0.04307013005018234,0.007414994761347771,0.02574775367975235,-0.006069611757993698,0.01126319169998169,XArbitraryZVertical,0.04145180988276758,0.01224139132091903,-0.6546151192234115,0.7547258237330432,0.07274775207042694,-0.0465427041053772,-0.9962638020515442,0,0,0,-1,-1,,,,,,,,,,,,,,,,,,1,0.71
2021-12-13 16:05:41.700 -0500,,,,,,,,,,16216.107595375,0.04443359375,-0.0707550048828125,-1.03021240234375,16216.102626375,-1.430246117010516,0.07334594207869138,0.04568337046502188,-0.0721706748008728,0.04866942390799522,0.07753762602806091,-0.0006786957383155823,0.01264745369553566,-0.008825540542602539,XArbitraryZVertical,0.04126785209846973,0.01270896817052612,-0.6544662610592383,0.7548571193161151,0.07320374250411987,-0.04566748067736626,-0.9962708950042725,0,0,0,-1,-1,,,,,,,,,,,,,,,,,,1,0.71
2021-12-13 16:05:41.710 -0500,,,,,,,,,,16216.117534375,0.069793701171875,-0.0742645263671875,-1.023147583007812,16216.112564375,-1.428616860338052,0.07365044693557181,0.04506429696653642,-0.09665178507566452,0.01287840493023396,0.2344912886619568,-0.05171960592269897,-0.002283725887537003,-0.03288298845291138,XArbitraryZVertical,0.04112355150088233,0.01306037470145039,-0.6538580277753588,0.7553859679256425,0.07350917905569077,-0.04504904523491859,-0.9962765574455261,0,0,0,-1,-1,,,,,,,,,,,,,,,,,,1,0.71
2021-12-13 16:05:41.720 -0500,,,,,,,,,,16216.127473375,0.0814971923828125,-0.04901123046875,-0.997528076171875,16216.122504375,-1.425729628752633,0.07340247758736566,0.04404755523512676,-0.1362013220787048,-0.04293399304151535,0.3189084529876709,-0.009147994220256805,-0.04072926938533783,-0.03043925762176514,XArbitraryZVertical,0.04063977339136593,0.01335843658347915,-0.6527934675952693,0.7563269716860406,0.0732654482126236,-0.04403331503272057,-0.9963399171829224,0,0,0,-1,-1,,,,,,,,,,,,,,,,,,1,0.71
2021-12-13 16:05:41.730 -0500,,,,,,,,,,16216.137412375,0.1082763671875,-0.037567138671875,-0.9889373779296875,16216.132443375,-1.423154283910058,0.07294586229765521,0.04309391787362368,-0.07609910517930984,-0.006391762755811214,0.1526326388120651,-0.0001358911395072937,-0.01305651292204857,-0.01666206121444702,XArbitraryZVertical,0.04011318353519855,0.01354927181751169,-0.6518482237625466,0.7571665112330824,0.07281352579593658,-0.04308057948946953,-0.9964147210121155,0,0,0,-1,-1,,,,,,,,,,,,,,661122341.7166424,0,-0.27,101.8663,1,0.71
2021-12-13 16:05:41.740 -0500,,,,,,,,,,16216.147351375,0.09130859375,-0.0450286865234375,-0.993988037109375,16216.142382375,-1.422458079646892,0.07331126739992364,0.04268456350137143,-0.02929351478815079,0.06876307725906372,0.006166371516883373,0.02183759957551956,-0.001838292926549911,0.007239282131195068,XArbitraryZVertical,0.04007269267064915,0.01383522288710042,-0.6515858062343599,0.7573894923908027,0.07317890226840973,-0.04267160221934319,-0.9964055418968201,0,0,0,-1,-1,16216.125140375,unknown,2,2021-12-13 16:05:41.717 -0500,,,,,,,,,,,,,,1,0.71
2021-12-13 16:05:41.750 -0500,,,,,,,,,,16216.157290375,0.0771636962890625,-0.071502685546875,-1.014251708984375,16216.152321375,-1.422751164039275,0.07388068725920564,0.04237481763151418,-0.03420065343379974,0.049637321382761,-0.07215958833694458,0.03590243309736252,0.005863107740879059,0.008705973625183105,XArbitraryZVertical,0.04014314264714118,0.01414606977165528,-0.6516918411425249,0.757288664033151,0.07374723255634308,-0.04236213862895966,-0.9963768124580383,0,0,0,-1,-1,,,,,,,,,,,,,,,,,,1,0.71
2021-12-13 16:05:41.760 -0500,,,,,,,,,,16216.167229375,0.08660888671875,-0.0794525146484375,-1.016525268554688,16216.162260375,-1.423373972508934,0.07444174030854823,0.04201928803092451,-0.04770820960402489,0.05148126184940338,-0.0492035411298275,-0.004238978028297424,-0.01414542645215988,-0.006579399108886719,XArbitraryZVertical,0.0401960272074466,0.0144620502167343,-0.6519238001957653,0.757080211687857,0.07430735975503922,-0.04200692474842072,-0.9963502287864685,0,0,0,-1,-1,,,,,,,,,,,,,,,,,,1,0.71
2021-12-13 16:05:41.770 -0500,,,,,,,,,,16216.177168375,0.0740814208984375,-0.068206787109375,-1.015411376953125,16216.172199375,-1.423686900761656,0.0749670267785139,0.04125108858919934,-0.106353685259819,0.04470297694206238,-0.01766559109091759,0.01687221974134445,-0.04179894551634789,-0.02195227146148682,XArbitraryZVertical,0.04007918132698233,0.01490547740693878,-0.6520477837089991,0.7569710186667403,0.07483310997486115,-0.04123939201235771,-0.9963429570198059,0,0,0,-1,-1,,,,,,,,,,,,,,,,,,1,0.71
2021-12-13 16:05:41.780 -0500,,,,,,,,,,16216.187107375,0.0730133056640625,-0.044647216796875,-1.013885498046875,16216.182138375,-1.423279061025645,0.07540303709964417,0.03998802397825416,-0.1491805016994476,0.05473580956459045,0.07740513235330582,-0.001434087753295898,-0.03120489045977592,-0.01636439561843872,XArbitraryZVertical,0.03974075643930264,0.01549112877051305,-0.6519110503995529,0.7570948465813429,0.07527138292789459,-0.03997736796736717,-0.9963613748550415,0,0,0,-1,-1,,,,,,,,,,,,,,,,,,1,0.71
2021-12-13 16:05:41.790 -0500,,,,,,,,,,16216.197046375,0.0544281005859375,-0.0313262939453125,-1.004837036132812,16216.192077375,-1.421984706480305,0.07582652941529713,0.03844886136296344,-0.1883702576160431,0.05588069558143616,0.1490225791931152,0.004273436963558197,-0.02244319021701813,-0.02176833152770996,XArbitraryZVertical,0.0392864347627781,0.01617944146715643,-0.6514444437910372,0.7575057861961042,0.07569789886474609,-0.03843938931822777,-0.996389627456665,0,0,0,-1,-1,,,,,,,,,,,,,,,,,,1,0.71
2021-12-13 16:05:41.800 -0500,,,,,,,,,,16216.206985375,0.07012939453125,-0.04351806640625,-1.001968383789062,16216.202016375,-1.420409987929587,0.0762717645606041,0.03646358902326437,-0.238775908946991,0.04974986612796783,0.1335369795560837,-0.0147305354475975,0.003237117081880569,-0.0118708610534668,XArbitraryZVertical,0.03866707584278236,0.01702625567070191,-0.6508798667834186,0.7580040905283462,0.07614718377590179,-0.03645550832152367,-0.9964299201965332,0,0,0,-1,-1,,,,,,,,,,,,,,,,,,1,0.71
2021-12-13 16:05:41.810 -0500,,,,,,,,,,16216.216924375,0.071044921875,-0.0290069580078125,-1.0020751953125,16216.211955375,-1.419013440890507,0.07672289854772227,0.03452526400865021,-0.1642747670412064,0.05638114362955093,0.105363667011261,-0.01701638102531433,-0.001202426850795746,-0.003474891185760498,XArbitraryZVertical,0.03806767040378979,0.01785564231617021,-0.6503810651309171,0.7584434266340364,0.07660197466611862,-0.03451840579509735,-0.9964640736579895,0,0,0,-1,-1,,,,,,,,,,,,,,,,,,1,0.71
2021-12-13 16:05:41.820 -0500,,,,,,,,,,16216.226863375,0.0968170166015625,-0.0395965576171875,-0.9957122802734375,16216.221894375,-1.418148555970963,0.07742400200511999,0.03363029430695239,-0.03745237365365028,0.07410887628793716,0.06616698950529099,-0.001649841666221619,-0.008047811686992645,-0.008732199668884277,XArbitraryZVertical,0.03794868790885648,0.01842940969062967,-0.6500577375340255,0.758712873643165,0.07730294018983841,-0.03362395614385605,-0.9964405298233032,0,0,0,-1,-1,,,,,,,,,,,,,,,,,,1,0.71
2021-12-13 16:05:41.830 -0500,,,,,,,,,,16216.236802375,0.118927001953125,-0.046722412109375,-0.9865875244140625,16216.231833375,-1.417481040061849,0.07808595084969039,0.03362913096028736,0.01570751518011093,0.05148505419492722,0.06457415223121643,-0.002294160425662994,0.005867049098014832,-0.001489877700805664,XArbitraryZVertical,0.03815716027324004,0.01869363827526533,-0.6497919045616428,0.7589236450773833,0.07796251773834229,-0.03362279385328293,-0.9963891506195068,0,0,0,-1,-1,,,,,,,,,,,,,,,,,,1,0.71
2021-12-13 16:05:41.839 -0500,,,,,,,,,,16216.246741375,0.1038818359375,-0.023651123046875,-0.97760009765625,16216.241772375,-1.417078897991429,0.07854338519579322,0.03397480076806418,0.03092028945684433,0.05967980250716209,0.008055751211941242,0.03562683612108231,-0.014173224568367,0.0057869553565979,XArbitraryZVertical,0.03843302206982858,0.01876246695549099,-0.6496234950586735,0.7590522499905045,0.07841737568378448,-0.03396826609969139,-0.9963417649269104,0,0,0,-1,-1,,,,,,,,,,,,,,,,,,1,0.71
2021-12-13 16:05:41.849 -0500,,,,,,,,,,16216.256680375,0.098114013671875,-0.05328369140625,-0.9964141845703125,16216.251711375,-1.41744417613078,0.07928776245361478,0.03427885873084219,0.007133201695978642,0.07697996497154236,-0.05309255793690681,0.03712905943393707,0.0001687444746494293,0.01340842247009277,XArbitraryZVertical,0.03879352692798259,0.01893897551711474,-0.6497415091153339,0.7589284564039275,0.07915818691253662,-0.03427214547991753,-0.9962727427482605,0,0,0,-1,-1,,,,,,,,,,,,,,,,,,1,0.71
2021-12-13 16:05:41.859 -0500,,,,,,,,,,16216.266619375,0.0922698974609375,-0.07513427734375,-1.012161254882812,16216.261650375,-1.417282469856352,0.07967747058409869,0.03406616167551021,-0.06248662248253822,-0.001221869140863419,0.08932943642139435,0.01350110769271851,0.005205191671848297,0.01332366466522217,XArbitraryZVertical,0.03883797115988314,0.01915920223074243,-0.6496769801849753,0.7589757730726581,0.07954701036214828,-0.03405957296490669,-0.9962490797042847,0,0,0,-1,-1,,,,,,,,,,,,,,,,,,1,0.71
2021-12-13 16:05:41.869 -0500,,,,,,,,,,16216.276558375,0.06494140625,-0.0157318115234375,-0.998748779296875,16216.271589375,-1.416324404953835,0.07944212443645757,0.03345776219712533,-0.07863523811101913,-0.01362980250269175,0.04880651086568832,0.02542217075824738,-0.04166750982403755,-0.0121651291847229,XArbitraryZVertical,0.03852167053703179,0.01928629146361118,-0.6493304050277746,0.7592852334940841,0.07931417971849442,-0.03345151990652084,-0.9962882399559021,0,0,0,-1,-1,,,,,,,,,,,,,,,,,,1,0.71
2021-12-13 16:05:41.880 -0500,,,,,,,,,,16216.286497375,0.0857086181640625,-0.00811767578125,-0.991302490234375,16216.281528375,-1.416180577315169,0.07968010669394454,0.03287053378423505,-0.03594529256224632,0.06575053930282593,-0.01126894354820251,-0.01081195473670959,-0.01407143101096153,-0.01503324508666992,XArbitraryZVertical,0.03837484530619629,0.01957034652996073,-0.6492832599878322,0.7593256877686756,0.07955282181501389,-0.03286461532115936,-0.9962887167930603,0,0,0,-1,-1,,,,,,,,,,,,,,,,,,1,0.71
2021-12-13 16:05:41.889 -0500,,,,,,,,,,16216.296436375,0.0728759765625,-0.0286865234375,-1.00567626953125,16216.291467375,-1.416149574620219,0.08046392684970294,0.03261634375691043,-0.02530489861965179,0.08694291114807129,0.02577243000268936,-0.001537978649139404,0.02708687260746956,0.007922649383544922,XArbitraryZVertical,0.03853259552307536,0.01995117650708134,-0.6492616319841461,0.7593263195703305,0.0803343802690506,-0.03261056169867516,-0.9962343573570251,0,0,0,-1,-1,,,,,,,,,,,,,,,,,,1,0.71
2021-12-13 16:05:41.899 -0500,,,,,,,,,,16216.306375375,0.06689453125,-0.0489044189453125,-1.01336669921875,16216.301406375,-1.415525329294798,0.08118031656692158,0.0324371499733156,-0.01507809478789568,0.06564635038375854,0.08119760453701019,-0.003579631447792053,0.01879009604454041,-0.001971304416656494,XArbitraryZVertical,0.03869086951532218,0.02029349923595552,-0.6490144680173227,0.7595204243898482,0.08104852586984634,-0.032431460916996,-0.996182382106781,0,0,0,-1,-1,,,,,,,,,,,,,,,,,,1,0.71
2021-12-13 16:05:41.909 -0500,,,,,,,,,,16216.316314375,0.080596923828125,-0.04913330078125,-1.009613037109375,16216.311345375,-1.414866781809163,0.08186120103490452,0.03236675589408933,-0.01852715387940407,0.07892646640539169,0.05749440938234329,-0.01104824990034103,-0.01321690529584885,-0.01418566703796387,XArbitraryZVertical,0.03887833691105309,0.02058775301222547,-0.6487525949191443,0.7597267011830818,0.08172697573900223,-0.03236110508441925,-0.9961292147636414,0,0,0,-1,-1,,,,,,,,,,,,,,,,,,1,0.71
2021-12-13 16:05:41.919 -0500,,,,,,,,,,16216.326253375,0.094818115234375,-0.044464111328125,-1.008026123046875,16216.321284375,-1.413732340571911,0.08254629850600671,0.03218401691975269,-0.04935217648744583,0.04245903342962265,0.1812670826911926,-0.01388265192508698,-0.01547475159168243,-0.01510578393936157,XArbitraryZVertical,0.039019365558334,0.02092949792359012,-0.648312034183964,0.7600860625549392,0.08240988850593567,-0.03217846155166626,-0.9960789084434509,0,0,0,-1,-1,,,,,,,,,,,,,,,,,,1,0.71
2021-12-13 16:05:41.929 -0500,,,,,,,,,,16216.336192375,0.1027984619140625,-0.0321502685546875,-0.9909210205078125,16216.331223375,-1.411385296429546,0.08253787282525196,0.03178268463516732,-0.06040189787745476,-0.03463521599769592,0.2562744915485382,0.01052349060773849,-0.01691346988081932,-0.01403945684432983,XArbitraryZVertical,0.03883954216477118,0.02110218696654165,-0.6474281484333477,0.7608435947081658,0.0824025496840477,-0.03177733346819878,-0.9960923790931702,0,0,0,-1,-1,,,,,,,,,,,,,,,,,,1,0.71
2021-12-13 16:05:41.939 -0500,,,,,,,,,,16216.346131375,0.1130828857421875,-0.0133819580078125,-0.9764251708984375,16216.341162375,-1.409350861107038,0.08231004564631979,0.03165664734763564,0.007106303703039885,0.006242573261260986,0.1388490498065948,0.01075009256601334,-0.008769180625677109,-0.003839075565338135,XArbitraryZVertical,0.03869645904729284,0.02109575272749211,-0.6466609114507541,0.7615032359582742,0.08217594027519226,-0.03165135905146599,-0.9961150884628296,0,0,0,-1,-1,,,,,,,,,,,,,,,,,,1,0.71
2021-12-13 16:05:41.949 -0500,,,,,,,,,,16216.356070375,0.1150054931640625,-0.034332275390625,-0.98455810546875,16216.351101375,-1.408288619376201,0.08248318052866216,0.03208044977611989,0.0358724370598793,0.01402672566473484,0.1004148423671722,0.03029310703277588,0.0108347050845623,0.01441323757171631,XArbitraryZVertical,0.03890245426648426,0.02104509888978313,-0.6462441845385206,0.76184773031395,0.08234728872776031,-0.0320749469101429,-0.9960874319076538,0,0,0,-1,-1,,,,,,,,,,,,,,,,,,1,0.71
2021-12-13 16:05:41.959 -0500,,,,,,,,,,16216.366010375,0.0957489013671875,-0.039276123046875,-0.995819091796875,16216.361040375,-1.407193850805214,0.08245084783976969,0.03259629273883273,0.04215803369879723,-0.001189876347780228,0.108893945813179,0.03267654776573181,0.01348650828003883,0.01735943555831909,XArbitraryZVertical,0.03907684996546459,0.02088723603129759,-0.6458168852748846,0.7622055023627546,0.08231370896100998,-0.03259051963686943,-0.9960734248161316,0,0,0,-1,-1,,,,,,,,,,,,,,,,,,1,0.71
2021-12-13 16:05:41.969 -0500,,,,,,,,,,16216.375949375,0.0927581787109375,-0.041168212890625,-0.9972381591796875,16216.370979375,-1.406420971177452,0.08262512978376055,0.03295772764283614,0.02437423914670944,0.03723128139972687,0.06788046658039093,0.02746851742267609,-0.01119192317128181,0.004164993762969971,XArbitraryZVertical,0.03926265819087404,0.0208519336139658,-0.6455112791527984,0.7624557390326642,0.08248633146286011,-0.03295176103711128,-0.9960472583770752,0,0,0,-1,-1,,,,,,,,,,,,,,,,,,1,0.71
