loggingTime(txt),locationTimestamp_since1970(s),locationLatitude(WGS84),locationLongitude(WGS84),locationAltitude(m),locationSpeed(m/s),locationCourse(°),locationVerticalAccuracy(m),locationHorizontalAccuracy(m),locationFloor(Z),accelerometerTimestamp_sinceReboot(s),accelerometerAccelerationX(G),accelerometerAccelerationY(G),accelerometerAccelerationZ(G),motionTimestamp_sinceReboot(s),motionYaw(rad),motionRoll(rad),motionPitch(rad),motionRotationRateX(rad/s),motionRotationRateY(rad/s),motionRotationRateZ(rad/s),motionUserAccelerationX(G),motionUserAccelerationY(G),motionUserAccelerationZ(G),motionAttitudeReferenceFrame(txt),motionQuaternionX(R),motionQuaternionY(R),motionQuaternionZ(R),motionQuaternionW(R),motionGravityX(G),motionGravityY(G),motionGravityZ(G),motionMagneticFieldX(µT),motionMagneticFieldY(µT),motionMagneticFieldZ(µT),motionHeading(°),motionMagneticFieldCalibrationAccuracy(Z),activityTimestamp_sinceReboot(s),activity(txt),activityActivityConfidence(Z),activityActivityStartDate(txt),pedometerStartDate(txt),pedometerNumberofSteps(N),pedometerAverageActivePace(s/m),pedometerCurrentPace(s/m),pedometerCurrentCadence(steps/s),pedometerDistance(m),pedometerFloorAscended(N),pedometerFloorDescended(N),pedometerEndDate(txt),altimeterTimestamp_sinceReboot(s),altimeterReset(bool),altimeterRelativeAltitude(m),altimeterPressure(kPa),batteryState(N),batteryLevel(R)
2022-01-24 19:34:26.213 -0500,1643070865.782276,34.01176451999999,-80.98429106999997,61.11681,-1,-1,30.53833770751953,95,-9999,4923.483342,0.0216827392578125,0.0218505859375,-0.99322509765625,4923.478374,-0.1586479678482788,0.03162805428931353,-0.05866117269852786,-0.1846984624862671,-0.05637812614440918,-0.1277973055839539,-0.02622714638710022,-0.03055155649781227,0.002327799797058105,XArbitraryZVertical,-0.02797798480691993,0.0180804198314359,-0.0796591298735823,0.9962653558443615,0.03156838938593864,0.05862753465771675,-0.9977806806564331,0,0,0,-1,-1,4916.802225625001,unknown,2,2022-01-24 19:34:19.433 -0500,,,,,,,,,,664763664.5223039,0,-0.03999996,100.5614,1,1
2022-01-24 19:34:26.223 -0500,,,,,,,,,,4923.493279,-0.011566162109375,0.03399658203125,-1.003433227539062,4923.488311,-0.1597598339111243,0.03089530282716811,-0.06039724488577689,-0.1488440483808517,-0.07454807311296463,-0.1175904721021652,-0.009150661528110504,-0.03851014375686646,0.004475235939025879,XArbitraryZVertical,-0.02886212811025023,0.01779980617044144,-0.08021401899912994,0.9962006889596583,0.03083406388759613,0.06036053225398064,-0.9977002739906311,0,0,0,-1,-1,,,,,,,,,,,,,,,,,,1,1
2022-01-24 19:34:26.226 -0500,,,,,,,,,,4923.503216,-0.021453857421875,0.0465545654296875,-1.006881713867188,4923.498248,-0.1609883174612352,0.03001820746780629,-0.06151965553913302,-0.05926676839590073,-0.08257697522640228,-0.1331936568021774,-0.04152241721749306,-0.0274844691157341,-0.005774617195129395,XArbitraryZVertical,-0.02944571733603295,0.01742551167391339,-0.0808202644810434,0.9961412731498147,0.02995692193508148,0.06148085743188858,-0.9976586103439331,0,0,0,-1,-1,,,,,,,,,,,,,,,,,,1,1
2022-01-24 19:34:26.227 -0500,,,,,,,,,,4923.513153,-0.020294189453125,0.0420684814453125,-1.018173217773438,4923.508185000001,-0.1624022232720072,0.02903767068530702,-0.06159253059821779,0.04734143614768982,-0.1039493754506111,-0.1553229242563248,-0.05043172463774681,-0.01499922201037407,-0.009198665618896484,XArbitraryZVertical,-0.02950965553187098,0.01696091233437227,-0.08151046966911245,0.9960911056261212,0.02897853590548038,0.06155359372496605,-0.9976829886436462,0,0,0,-1,-1,,,,,,,,,,,,,,,,,,1,1
2022-01-24 19:34:26.228 -0500,,,,,,,,,,4923.523090000001,-0.0128021240234375,0.0316925048828125,-1.018905639648438,4923.518121,-0.1640595856869663,0.02776694654827861,-0.06087131971870827,0.10450778901577,-0.1331215649843216,-0.1734507977962494,-0.04800548031926155,-0.01876544579863548,-0.02041006088256836,XArbitraryZVertical,-0.02918869745082467,0.0163231459977372,-0.08231305162545488,0.9960451232937783,0.02771195769309998,0.06083373725414276,-0.9977631568908691,0,0,0,-1,-1,,,,,,,,,,,,,,,,,,1,1
2022-01-24 19:34:26.229 -0500,,,,,,,,,,4923.533027,-0.0257110595703125,0.028594970703125,-1.007522583007812,4923.528058,-0.1658809537020949,0.02601813279573095,-0.05995252055491537,0.07394535094499588,-0.1958206444978714,-0.1896739900112152,-0.0387699156999588,-0.02822430059313774,-0.02104008197784424,XArbitraryZVertical,-0.0287889885768837,0.01544097240627381,-0.08318975214257186,0.9959980170259594,0.02596845850348473,0.05991661176085472,-0.9978655576705933,0,0,0,-1,-1,,,,,,,,,,,,,,,,,,1,1
2022-01-24 19:34:26.231 -0500,,,,,,,,,,4923.542964,-0.0304718017578125,0.042205810546875,-1.000747680664062,4923.537995000001,-0.1679803967936239,0.0237034580833127,-0.05981106296441765,-0.03478539362549782,-0.2408979833126068,-0.2289284616708755,-0.04936925321817398,-0.03118062764406204,-0.009591102600097656,XArbitraryZVertical,-0.02879978598277423,0.01431266288398945,-0.08420120619393862,0.9959296474688039,0.02365885674953461,0.05977540835738182,-0.9979314208030701,0,0,0,-1,-1,,,,,,,,,,,,,,,,,,1,1
2022-01-24 19:34:26.232 -0500,,,,,,,,,,4923.552901,-0.0318450927734375,0.053466796875,-1.0084228515625,4923.547932,-0.1702652797946467,0.02095765400958571,-0.06064250208225857,-0.131692498922348,-0.2893856167793274,-0.2172169387340546,-0.05138873308897018,-0.01839971542358398,-0.002805054187774658,XArbitraryZVertical,-0.02931456581034639,0.01301356188822501,-0.08530262100179099,0.9958386981809743,0.02091759815812111,0.06060533970594406,-0.9979426264762878,0,0,0,-1,-1,,,,,,,,,,,,,,,,,,1,1
2022-01-24 19:34:26.233 -0500,,,,,,,,,,4923.562837750001,-0.0683135986328125,0.079071044921875,-0.993621826171875,4923.557869,-0.1723162050878813,0.01792628037992891,-0.06238928131364389,-0.1863424330949783,-0.2531335949897766,-0.2088149189949036,-0.04973486810922623,-0.008882209658622742,-0.01052874326705933,XArbitraryZVertical,-0.03030173572548289,0.01160923346026506,-0.08628474510710454,0.9957418940807253,0.01789044588804245,0.06234881654381752,-0.9978940486907959,0,0,0,-1,-1,,,,,,,,,,,,,,,,,,1,1
2022-01-24 19:34:26.234 -0500,,,,,,,,,,4923.57277375,-0.0761871337890625,0.0765380859375,-0.990447998046875,4923.56780575,-0.1745610300897466,0.0159974806158959,-0.06428183573746607,-0.1879349946975708,-0.1101151928305626,-0.2473556697368622,-0.08427669107913971,0.01483328640460968,0.004185140132904053,XArbitraryZVertical,-0.03131515862986764,0.01076523781940139,-0.08737800432284973,0.9956245985365776,0.01596375927329063,0.0642375722527504,-0.9978069663047791,0,0,0,-1,-1,,,,,,,,,,,,,,,,,,1,1
2022-01-24 19:34:26.235 -0500,,,,,,,,,,4923.58271075,-0.0551605224609375,0.054718017578125,-1.001907348632812,4923.577742750001,-0.1770720786222608,0.01517919580229715,-0.06623632364632752,-0.1985096037387848,-0.033411655575037,-0.2577397227287292,-0.09133179485797882,0.01035000383853912,0.007244229316711426,XArbitraryZVertical,-0.03231076642020964,0.01048335604899031,-0.08861971124961976,0.9954861005583949,0.01514532882720232,0.06618790328502655,-0.9976922273635864,0,0,0,-1,-1,,,,,,,,,,,,,,,,,,1,1
2022-01-24 19:34:26.236 -0500,,,,,,,,,,4923.592647750001,-0.05029296875,0.0384521484375,-0.9959564208984375,4923.58767975,-0.1795653213136841,0.01480567115198631,-0.06822467468676274,-0.1912346482276917,-0.009618176147341728,-0.2491193413734436,-0.0699305385351181,-0.01345392316579819,-0.004343092441558838,XArbitraryZVertical,-0.03330406050309796,0.0104265686760626,-0.08985893018976961,0.9953428934572922,0.0147706875577569,0.06817176192998886,-0.9975642561912537,0,0,0,-1,-1,,,,,,,,,,,,,,,,,,1,1
2022-01-24 19:34:26.239 -0500,,,,,,,,,,4923.60258475,-0.0457916259765625,0.038055419921875,-0.981475830078125,4923.59761675,-0.1820329641412081,0.01471094297955488,-0.07005353175491917,-0.1732708364725113,0.01935138925909996,-0.2509975433349609,-0.06496662646532059,-0.0315442755818367,0.001482903957366943,XArbitraryZVertical,-0.03420558245452486,0.01050334439136449,-0.09108918609840759,0.9951996256697094,0.01467433106154203,0.06999624520540237,-0.9974393248558044,0,0,0,-1,-1,,,,,,,,,,,,,,,,,,1,1
2022-01-24 19:34:26.245 -0500,,,,,,,,,,4923.61252175,-0.039703369140625,0.0424957275390625,-0.971710205078125,4923.60755375,-0.1844762811553766,0.0147726505933376,-0.07175736097369531,-0.1658824235200882,0.03075850754976273,-0.2430384010076523,-0.06052505224943161,-0.03364055603742599,0.01584190130233765,XArbitraryZVertical,-0.03503763620475174,0.01065402105143044,-0.09230945076301014,0.9950565951231897,0.01473409775644541,0.07169579714536667,-0.9973177313804626,0,0,0,-1,-1,,,,,,,,,,,,,,,,,,1,1
2022-01-24 19:34:26.258 -0500,,,,,,,,,,4923.62245875,-0.04083251953125,0.0399627685546875,-0.9795074462890625,4923.61749075,-0.1868217715153729,0.01518582582044936,-0.07349552048462474,-0.171742707490921,0.08562182635068893,-0.2331554144620895,-0.05484694615006447,-0.03093382716178894,0.02547520399093628,XArbitraryZVertical,-0.03587052229025682,0.01098141605857052,-0.09348718750415515,0.9949134404420197,0.01514424849301577,0.07342937588691711,-0.9971854090690613,0,0,0,-1,-1,,,,,,,,,,,,,,,,,,1,1
2022-01-24 19:34:26.265 -0500,,,,,,,,,,4923.63239575,-0.0341796875,0.0380401611328125,-0.98492431640625,4923.62742675,-0.1892207440615703,0.01607424894476462,-0.07522232865775692,-0.1721421778202057,0.1300188452005386,-0.2553278207778931,-0.05685994774103165,-0.03518881648778915,0.01753586530685425,XArbitraryZVertical,-0.03667420710305382,0.01154758408662772,-0.09470029295604426,0.9947630179649611,0.01602810248732567,0.07515140622854233,-0.9970433115959167,0,0,0,-1,-1,,,,,,,,,,,,,,,,,,1,1
2022-01-24 19:34:26.275 -0500,,,,,,,,,,4923.642332750001,-0.018310546875,0.0419158935546875,-0.9989776611328125,4923.63736375,-0.1917646910636674,0.01717298217683242,-0.07696670821322665,-0.168231338262558,0.1218997985124588,-0.2562362551689148,-0.05130031332373619,-0.03885075449943542,0.01196819543838501,XArbitraryZVertical,-0.03747431336280432,0.01222379667002765,-0.09598992457052118,0.9946015177521152,0.01712130010128021,0.0768907368183136,-0.996892511844635,0,0,0,-1,-1,,,,,,,,,,,,,,,,,,1,1
2022-01-24 19:34:26.285 -0500,,,,,,,,,,4923.65226975,-0.0233917236328125,0.0499267578125,-1.002334594726562,4923.64730075,-0.1942112412013977,0.01796129539233883,-0.07848094786278846,-0.1288082897663116,0.0746137797832489,-0.2423814088106155,-0.0362149216234684,-0.03648468852043152,-0.002216517925262451,XArbitraryZVertical,-0.03817399293059268,0.01273469330487783,-0.0972251883819196,0.9944485348150408,0.01790504716336727,0.07840041071176529,-0.99676114320755,0,0,0,-1,-1,,,,,,,,,,,,,,,,,,1,1
2022-01-24 19:34:26.295 -0500,,,,,,,,,,4923.66220675,-0.0323638916015625,0.0522613525390625,-1.000457763671875,4923.657237750001,-0.1967315529540324,0.01829348842073391,-0.07972524822722372,-0.1166315227746964,0.04263490810990334,-0.2721482217311859,-0.04162541404366493,-0.02971422672271729,-0.005677759647369385,XArbitraryZVertical,-0.03876021403109631,0.01300876855013634,-0.09848785521732172,0.9942979988642833,0.01823436468839645,0.07964082062244415,-0.9966568350791931,0,0,0,-1,-1,,,,,,,,,,,,,,,,,,1,1
2022-01-24 19:34:26.305 -0500,,,,,,,,,,4923.67214375,-0.0179290771484375,0.0452423095703125,-1.024642944335938,4923.66717475,-0.1995290190125544,0.01853740755219751,-0.08077014026372897,-0.06871912628412247,0.05493578314781189,-0.2898286879062653,-0.0508391335606575,-0.02842116355895996,-0.003889143466949463,XArbitraryZVertical,-0.03924922581954762,0.01323601593912028,-0.09988596746181233,0.9941363323555985,0.01847591437399387,0.08068234473466873,-0.9965686202049255,0,0,0,-1,-1,,,,,,,,,,,,,,,,,,1,1
2022-01-24 19:34:26.315 -0500,,,,,,,,,,4923.682080750001,-0.0198974609375,0.0592498779296875,-1.019775390625,4923.67711175,-0.2022827477257907,0.01867605681577234,-0.08126962474038979,-0.03291665017604828,0.004971884191036224,-0.2679995596408844,-0.03654173761606216,-0.03593805432319641,-0.02811729907989502,XArbitraryZVertical,-0.03947220556285482,0.01338405314514709,-0.1012586794024321,0.9939866434575658,0.01861333288252354,0.08118019253015518,-0.9965256452560425,0,0,0,-1,-1,,,,,,,,,,,,,,,,,,1,1
2022-01-24 19:34:26.324 -0500,,,,,,,,,,4923.69201675,-0.0203704833984375,0.0488128662109375,-1.0030517578125,4923.68704875,-0.2048877118588955,0.01830446728698332,-0.08148996034359848,0.02239453978836536,-0.01127899065613747,-0.2517356276512146,-0.03813949227333069,-0.02215009182691574,-0.02326083183288574,XArbitraryZVertical,-0.03958329134104826,0.01326201589933335,-0.1025464530984891,0.9938518460627983,0.01824270561337471,0.08139979839324951,-0.9965145587921143,0,0,0,-1,-1,,,,,,,,,,,,,,,,,,1,1
2022-01-24 19:34:26.334 -0500,,,,,,,,,,4923.70195375,-0.011932373046875,0.0484161376953125,-0.987396240234375,4923.696985750001,-0.2074309048640659,0.01829565492220767,-0.08103495259745556,0.02644920349121094,0.02896353602409363,-0.2474193125963211,-0.03860440850257874,-0.03213358670473099,-0.006500124931335449,XArbitraryZVertical,-0.0393407593217643,0.01328451197225507,-0.1038088636157669,0.9937300990831256,0.01823459938168526,0.08094629645347595,-0.9965516328811646,0,0,0,-1,-1,,,,,,,,,,,,,,,,,,1,1
2022-01-24 19:34:26.344 -0500,,,,,,,,,,4923.711890750001,-0.00390625,0.0495758056640625,-0.9776458740234375,4923.706922750001,-0.2096966422160357,0.01852440724051537,-0.08130976466292991,-0.05281952023506165,0.06892320513725281,-0.2076402008533478,-0.03039384633302689,-0.0328042283654213,0.009128928184509277,XArbitraryZVertical,-0.039450221023974,0.01345703357986758,-0.104939741882534,0.9936046415583096,0.01846214942634106,0.08122020214796066,-0.9965251684188843,0,0,0,-1,-1,,,,,,,,,,,,,,,,,,1,1
2022-01-24 19:34:26.354 -0500,,,,,,,,,,4923.721827750001,0.002105712890625,0.06072998046875,-1.000747680664062,4923.71685975,-0.2116024527018639,0.0192236864398602,-0.08191925990939017,-0.06096133589744568,0.097609743475914,-0.180484339594841,-0.02306361496448517,-0.03225202113389969,0.01881647109985352,XArbitraryZVertical,-0.03970314550936885,0.01387402300713662,-0.1059018859145343,0.9934867344455232,0.01915803924202919,0.08182767033576965,-0.996462345123291,0,0,0,-1,-1,,,,,,,,,,,,,,,,,,1,1
2022-01-24 19:34:26.364 -0500,,,,,,,,,,4923.73176475,0.0110626220703125,0.0623321533203125,-1.022705078125,4923.72679675,-0.2133291637032916,0.0199357125961615,-0.08256354669922572,-0.06175096333026886,0.06900420039892197,-0.1675613522529602,-0.01776009798049927,-0.02173995971679688,-0.004352152347564697,XArbitraryZVertical,-0.03997318080449961,0.01429608989764178,-0.1067754789225144,0.9933764465880436,0.01986648701131344,0.08246977627277374,-0.9963955283164978,0,0,0,-1,-1,,,,,,,,,,,,,,,,,,1,1
2022-01-24 19:34:26.374 -0500,,,,,,,,,,4923.74170175,0.0138702392578125,0.0602569580078125,-1.029861450195312,4923.73673375,-0.2149927331585563,0.02022228045945439,-0.08314455796674741,-0.04712488129734993,0.02747496403753757,-0.1722539812326431,-0.009087752550840378,-0.02071680128574371,-0.02636337280273438,XArbitraryZVertical,-0.04023443698018565,0.01450267490376321,-0.107609069022132,0.9932729491457919,0.0201510488986969,0.08304879814386368,-0.9963417053222656,0,0,0,-1,-1,,,,,,,,,,,,,,,,,,1,1
2022-01-24 19:34:26.384 -0500,,,,,,,,,,4923.75163875,0.027618408203125,0.053955078125,-1.0311279296875,4923.74666975,-0.2168526517328594,0.02005821108666535,-0.08352960172956582,-0.02034839615225792,-0.03968463093042374,-0.1948453038930893,-0.006116021424531937,-0.02317570894956589,-0.03354847431182861,XArbitraryZVertical,-0.04042106419830823,0.01447934728787419,-0.1085304870877181,0.9931653491018393,0.01998693682253361,0.08343250304460526,-0.9963129758834839,0,0,0,-1,-1,,,,,,,,,,,,,,,,,,1,1
2022-01-24 19:34:26.394 -0500,,,,,,,,,,4923.761575750001,0.034210205078125,0.0508575439453125,-1.009262084960938,4923.75660675,-0.2186945883670109,0.01925676465215253,-0.0833803299588313,0.06204181909561157,-0.07916875928640366,-0.1747340559959412,0.008430406451225281,-0.02932882308959961,-0.03478682041168213,XArbitraryZVertical,-0.0403774400923506,0.01411051420733466,-0.1094285384075368,0.9930738993155261,0.01918867789208889,0.08328375220298767,-0.9963411092758179,0,0,0,-1,-1,,,,,,,,,,,,,,,,,,1,1
2022-01-24 19:34:26.404 -0500,,,,,,,,,,4923.771512750001,0.0189666748046875,0.050384521484375,-0.97479248046875,4923.76654375,-0.2204239618292155,0.01819811690211951,-0.08260441943366696,0.07974784821271896,-0.09653683006763458,-0.1720525175333023,0.01607581786811352,-0.03165312856435776,-0.01283687353134155,XArbitraryZVertical,-0.04003832576054973,0.01357732628993244,-0.1102640771639295,0.9930026483533509,0.01813506335020065,0.08251050859689713,-0.9964251518249512,0,0,0,-1,-1,,,,,,,,,,,,,,,,,,1,1
2022-01-24 19:34:26.414 -0500,,,,,,,,,,4923.78144975,0.015472412109375,0.0494537353515625,-0.97454833984375,4923.776480750001,-0.2221584236838644,0.01694432020346142,-0.0820036365346364,0.03971121460199356,-0.1244178637862206,-0.1712056249380112,0.002080779522657394,-0.03152739256620407,0.02170401811599731,XArbitraryZVertical,-0.03979790294606307,0.01295642349713064,-0.1110989234348207,0.9929275826568842,0.01688657142221928,0.08191175758838654,-0.9964964985847473,0,0,0,-1,-1,,,,,,,,,,,,,,,,,,1,1
2022-01-24 19:34:26.424 -0500,,,,,,,,,,4923.79138675,0.008636474609375,0.0519561767578125,-0.9796295166015625,4923.786417750001,-0.2237774310494268,0.0154586145514233,-0.08172962782998539,0.01227159891277552,-0.1341325491666794,-0.1528873443603516,6.668921560049057e-05,-0.03218508511781693,0.02199459075927734,XArbitraryZVertical,-0.03973448330957531,0.01223585916198596,-0.1118726525696249,0.9928523908100452,0.01540639996528625,0.08163867145776749,-0.9965429306030273,0,0,0,-1,-1,,,,,,,,,,,,,,,,,,1,1
2022-01-24 19:34:26.434 -0500,,,,,,,,,,4923.801322750001,0.00299072265625,0.053802490234375,-0.9806671142578125,4923.79635475,-0.2252859939847118,0.01414948952037319,-0.0816904533917145,-0.01021506823599339,-0.1023180484771729,-0.1480610221624374,-0.00546468049287796,-0.02964360266923904,0.01693588495254517,XArbitraryZVertical,-0.03977950695555415,0.01161380235467847,-0.1125954421422254,0.992776299045383,0.01410183310508728,0.08159962296485901,-0.9965654015541077,0,0,0,-1,-1,,,,,,,,,,,,,,,,,,1,1
2022-01-24 19:34:26.444 -0500,,,,,,,,,,4923.81125975,-0.0038299560546875,0.0510406494140625,-0.977386474609375,4923.80629175,-0.2267390072236165,0.01322202969925216,-0.08187569402761301,-0.02776822820305824,-0.05473428964614868,-0.1478362530469894,-0.01018595043569803,-0.02798190712928772,0.01589584350585938,XArbitraryZVertical,-0.0399155512789422,0.01119279927126439,-0.113298391273949,0.992695734610578,0.0131773529574275,0.08178424835205078,-0.9965629577636719,0,0,0,-1,-1,,,,,,,,,,,,,,,,,,1,1
2022-01-24 19:34:26.454 -0500,,,,,,,,,,4923.82119675,-0.008697509765625,0.0499725341796875,-0.966217041015625,4923.81622875,-0.2283333744851782,0.01295086118274863,-0.0821812620235688,-0.04018574953079224,0.01922578737139702,-0.1769396811723709,-0.01673606783151627,-0.03104829043149948,0.01915496587753296,XArbitraryZVertical,-0.04007374737974786,0.01110738362249091,-0.1140845724861694,0.9926002784433954,0.01290679164230824,0.08208879083395004,-0.996541440486908,0,0,0,-1,-1,,,,,,,,,,,,,,,,,,1,1
2022-01-24 19:34:26.464 -0500,,,,,,,,,,4923.83113375,-0.0038299560546875,0.048431396484375,-0.97882080078125,4923.826165750001,-0.2303111212591899,0.01313735115737391,-0.0827063029721047,-0.05994667112827301,0.04696953669190407,-0.2202549427747726,-0.02178889885544777,-0.03263965994119644,0.03027874231338501,XArbitraryZVertical,-0.04031257973250651,0.0112696188390766,-0.1150702835976634,0.9924749235273423,0.01309206802397966,0.082612045109272,-0.99649578332901,0,0,0,-1,-1,,,,,,,,,,,,,,,,,,1,1
2022-01-24 19:34:26.474 -0500,,,,,,,,,,4923.841070750001,-0.002960205078125,0.04754638671875,-0.9833526611328125,4923.83610275,-0.2326859353193683,0.01368724571067121,-0.08347252732242795,-0.09017461538314819,0.09712981432676315,-0.2690777182579041,-0.01746844127774239,-0.03494437783956528,0.01760405302047729,XArbitraryZVertical,-0.04064740257294529,0.01163464228859039,-0.1162605017477683,0.9923183591466148,0.01363916322588921,0.08337562531232834,-0.9964248538017273,0,0,0,-1,-1,,,,,,,,,,,,,,,,,,1,1
2022-01-24 19:34:26.483 -0500,,,,,,,,,,4923.85100775,0.0058135986328125,0.0393829345703125,-0.9761810302734375,4923.84603975,-0.2358527196282825,0.01441163330986775,-0.08448301047346948,-0.1144333481788635,0.1034766584634781,-0.3714573681354523,-0.01731926202774048,-0.03683630377054214,0.01297730207443237,XArbitraryZVertical,-0.04108754182209224,0.01211756846382799,-0.1178474024265671,0.9921073019199392,0.01435973588377237,0.0843825489282608,-0.9963299632072449,0,0,0,-1,-1,,,,,,,,,,,,,,,,,,1,1
2022-01-24 19:34:26.493 -0500,,,,,,,,,,4923.86094475,0.020721435546875,0.032958984375,-0.9638214111328125,4923.85597675,-0.2399171255396072,0.01536804915150948,-0.0859014414561709,-0.1733789592981339,0.1553083509206772,-0.445297509431839,-0.009496500715613365,-0.04641304165124893,0.02001404762268066,XArbitraryZVertical,-0.04170899444600643,0.01275992099437606,-0.119884735528841,0.9918291814206699,0.01531078014522791,0.08579583466053009,-0.9961950778961182,0,0,0,-1,-1,,,,,,,,,,,,,,,,,,1,1
2022-01-24 19:34:26.503 -0500,,,,,,,,,,4923.87088175,0.02203369140625,0.0293121337890625,-0.9734649658203125,4923.86591275,-0.2447552469653376,0.01659848541878822,-0.08806808567164448,-0.2597170472145081,0.1818209290504456,-0.5315378308296204,0.004188716411590576,-0.05499544739723206,0.03216588497161865,XArbitraryZVertical,-0.04267698171543979,0.01360251571868847,-0.1223124646453773,0.991480295297661,0.01653339900076389,0.08795429021120071,-0.9959872961044312,0,0,0,-1,-1,,,,,,,,,,,,,,,,,,1,1
2022-01-24 19:34:26.513 -0500,,,,,,,,,,4923.88081875,0.0260772705078125,0.0270843505859375,-0.9906768798828125,4923.87584975,-0.250533645295535,0.01811748153913474,-0.09107834185808106,-0.3218075633049011,0.2279169112443924,-0.6353193521499634,0.003992969170212746,-0.06164048612117767,0.02222687005996704,XArbitraryZVertical,-0.04403427232636956,0.01466576140456661,-0.1252139786176152,0.9910434869625556,0.01804140210151672,0.09095247089862823,-0.9956917762756348,0,0,0,-1,-1,,,,,,,,,,,,,,,,,,1,1
2022-01-24 19:34:26.523 -0500,,,,,,,,,,4923.890755750001,0.032257080078125,0.0291748046875,-1.0135498046875,4923.88578675,-0.257330818665048,0.01984233879905252,-0.09460771490505694,-0.3583597540855408,0.2424564510583878,-0.7426325082778931,0.006325643509626389,-0.06738243252038956,0.004655182361602783,XArbitraryZVertical,-0.04562149957562437,0.01589502536800728,-0.1286261209840304,0.9905156015822075,0.01975230872631073,0.09446664154529572,-0.9953320622444153,0,0,0,-1,-1,,,,,,,,,,,,,,,,,,1,1
2022-01-24 19:34:26.533 -0500,,,,,,,,,,4923.90069275,0.041412353515625,0.0419158935546875,-1.021682739257812,4923.89572375,-0.2651260468312692,0.02125590958521463,-0.09851675609191593,-0.3962013721466064,0.1931541711091995,-0.8369961977005005,0.01110650971531868,-0.06918279826641083,-0.0186234712600708,XArbitraryZVertical,-0.04740068778282977,0.01702946714280421,-0.1325260480567164,0.9898989015939992,0.02115125022828579,0.09835747629404068,-0.9949263334274292,0,0,0,-1,-1,,,,,,,,,,,,,,,,,,1,1
2022-01-24 19:34:26.543 -0500,,,,,,,,,,4923.91062975,0.0448455810546875,0.0420989990234375,-1.02008056640625,4923.905660750001,-0.2736409635774295,0.02224875439798428,-0.1026493289834887,-0.3890995383262634,0.177706241607666,-0.885676383972168,0.01928321830928326,-0.06055338680744171,-0.02719271183013916,XArbitraryZVertical,-0.04930428604680455,0.01800254866062766,-0.1367713325507834,0.9892110732787051,0.02212981507182121,0.1024691537022591,-0.9944899678230286,0,0,0,-1,-1,,,,,,,,,,,,,,,,,,1,1
2022-01-24 19:34:26.553 -0500,,,,,,,,,,4923.920565750001,0.0427093505859375,0.0488739013671875,-1.0445556640625,4923.91559775,-0.2826118479729014,0.02290457711787731,-0.1062617670304806,-0.2971112728118896,0.1342279464006424,-0.9240235090255737,0.02207287400960922,-0.06396301835775375,-0.0259818434715271,XArbitraryZVertical,-0.05096255026811976,0.01880063671102904,-0.1412303041320868,0.9884853012948929,0.02277339249849319,0.1060619056224823,-0.9940987229347229,0,0,0,-1,-1,,,,,,,,,,,,,,,,,,1,1
2022-01-24 19:34:26.563 -0500,,,,,,,,,,4923.93050275,0.0260009765625,0.075225830078125,-1.051513671875,4923.92553475,-0.2919512366758098,0.0232036699632115,-0.1090427097144526,-0.2183195352554321,0.1524998992681503,-0.9610499739646912,0.01964624412357807,-0.05995296686887741,-0.05076247453689575,XArbitraryZVertical,-0.05222611446910377,0.01938722378857949,-0.1458573338694494,0.987735825916801,0.02306378819048405,0.1088267490267754,-0.9937931299209595,0,0,0,-1,-1,,,,,,,,,,,,,,,,,,1,1
2022-01-24 19:34:26.573 -0500,,,,,,,,,,4923.94043975,0.01995849609375,0.0902099609375,-1.061080932617188,4923.93547175,-0.3017848177246257,0.02360011473192281,-0.1111471189401524,-0.1631574779748917,0.1301516741514206,-1.012710928916931,0.002549348399043083,-0.03569269180297852,-0.0579608678817749,XArbitraryZVertical,-0.05313899001078523,0.01999666285794174,-0.1507259313083201,0.9869437012182639,0.02345231361687183,0.1109184175729752,-0.9935527443885803,0,0,0,-1,-1,,,,,,,,,,,,,,,,,,1,1
2022-01-24 19:34:26.583 -0500,,,,,,,,,,4923.95037675,0.019500732421875,0.0843505859375,-1.037200927734375,4923.945408750001,-0.3120026985145293,0.02351909173334535,-0.1126029439063514,-0.07831822335720062,0.09086046367883682,-1.029436945915222,-0.003408808261156082,-0.0221552699804306,-0.06768876314163208,XArbitraryZVertical,-0.05376041318969255,0.02034036753274165,-0.1557661342351335,0.9861201845650501,0.023367989808321,0.1123651415109634,-0.9933921694755554,0,0,0,-1,-1,,,,,,,,,,,,,,,,,,1,1
2022-01-24 19:34:26.593 -0500,,,,,,,,,,4923.960313750001,0.036590576171875,0.109283447265625,-0.9885406494140625,4923.955345750001,-0.3221843411869365,0.02343851225465777,-0.113378552338452,-0.03351106867194176,0.1364586353302002,-1.011839747428894,-0.003784473985433578,-0.02878530323505402,-0.04389429092407227,XArbitraryZVertical,-0.05404483365773853,0.02063593534060348,-0.1607830620931006,0.98529291012036,0.02328589372336864,0.1131357997655869,-0.9933066368103027,0,0,0,-1,-1,,,,,,,,,,,,,,,,,,1,1
2022-01-24 19:34:26.603 -0500,,,,,,,,,,4923.970250750001,0.0210113525390625,0.0984649658203125,-0.957916259765625,4923.96528275,-0.3322763525064636,0.02635490176886274,-0.1133697542183581,0.06451775878667831,0.6432738900184631,-0.9894521236419678,0.01040857471525669,-0.003843702375888824,0.004694879055023193,XArbitraryZVertical,-0.05369392972630489,0.02234318516556439,-0.1658312557740759,0.9844377437456645,0.02618268691003323,0.1131270602345467,-0.9932354688644409,0,0,0,-1,-1,,,,,,,,,,,,,,,,,,1,1
2022-01-24 19:34:26.623 -0500,,,,,,,,,,4923.98018775,0.045989990234375,0.0575103759765625,-1.03900146484375,4923.975218750001,-0.3425461685382225,0.02975695811350611,-0.113183813091079,0.05064748227596283,0.3080166876316071,-1.06468939781189,-0.00855015404522419,-0.01447741687297821,0.03524541854858398,XArbitraryZVertical,-0.05319627149548262,0.02427591566432529,-0.1709744791901633,0.9835387191438962,0.02956219576299191,0.1129423081874847,-0.993161678314209,0,0,0,-1,-1,,,,,,,,,,,,,,,,,,1,1
2022-01-24 19:34:26.639 -0500,,,,,,,,,,4923.99012475,0.0610504150390625,0.0534515380859375,-0.9792327880859375,4923.985155750001,-0.3533230747834678,0.03227984438416837,-0.1127298494077002,0.09438244998455048,0.4793980419635773,-1.08185076713562,0.01392129436135292,-0.05498093366622925,-0.04586637020111084,XArbitraryZVertical,-0.05261919117502124,0.02576206749613639,-0.1763371732896548,0.9825846451136404,0.03206938505172729,0.1124912425875664,-0.9931350946426392,0,0,0,-1,-1,,,,,,,,,,,,,,,,,,1,1
2022-01-24 19:34:26.641 -0500,,,,,,,,,,4924.00006175,0.0749359130859375,0.04595947265625,-1.024185180664062,4923.99509275,-0.3644114741376571,0.03605425482645729,-0.1121338693099018,0.1094894930720329,0.5174860954284668,-1.138261795043945,0.02523104846477509,-0.05844754725694656,0.01384103298187256,XArbitraryZVertical,-0.05183979624803829,0.02785221260394436,-0.1818785405337564,0.9815584697064877,0.03582005575299263,0.1118990182876587,-0.9930737614631653,0,0,0,-1,-1,,,,,,,,,,,,,,,,,,1,1
2022-01-24 19:34:26.643 -0500,,,,,,,,,,4924.009998750001,0.1189727783203125,0.0064849853515625,-1.06304931640625,4924.00502975,-0.3760170648154151,0.03986432539682505,-0.1107848632257356,0.2672402262687683,0.494068056344986,-1.163234710693359,0.03532714769244194,-0.06459897756576538,-0.03110510110855103,XArbitraryZVertical,-0.05065828447607415,0.0298952583640588,-0.1876631764289084,0.9804705120983376,0.03960945084691048,0.11055838316679,-0.9930800199508667,0,0,0,-1,-1,,,,,,,,,,,,,,,,,,1,1
2022-01-24 19:34:26.653 -0500,,,,,,,,,,4924.019935750001,0.1114654541015625,0.01519775390625,-0.99884033203125,4924.01496675,-0.3878570007511533,0.04380045769932221,-0.107678746528028,0.4507589340209961,0.5953631997108459,-1.179590344429016,0.07544060796499252,-0.1009858474135399,-0.06979453563690186,XArbitraryZVertical,-0.04857790687162036,0.0318250241317875,-0.1935462063429277,0.9793707043380933,0.0435328520834446,0.1074707806110382,-0.9932547211647034,0,0,0,-1,-1,,,,,,,,,,,,,,,,,,1,1
2022-01-24 19:34:26.662 -0500,,,,,,,,,,4924.02987275,0.1081695556640625,0.0469512939453125,-0.9860076904296875,4924.024903750001,-0.4001537128394311,0.04870266521667019,-0.1035910980227446,0.4515789151191711,0.5765530467033386,-1.243159294128418,0.06304370611906052,-0.08820819854736328,-0.005380451679229736,XArbitraryZVertical,-0.04589183127812233,0.03411763360213402,-0.1996547442106572,0.97819617797694,0.0484224334359169,0.1034059226512909,-0.9934598803520203,0,0,0,-1,-1,,,,,,,,,,,,,,,,,,1,1
2022-01-24 19:34:26.672 -0500,,,,,,,,,,4924.039808750001,0.1082611083984375,0.0690155029296875,-1.021621704101562,4924.034840750001,-0.4132015216654025,0.05098203214618182,-0.1005266886370082,0.2909650206565857,0.138668030500412,-1.329683542251587,0.05746757239103317,-0.05340619385242462,0.007651031017303467,XArbitraryZVertical,-0.04393584315871268,0.03521775373021383,-0.2060618684982362,0.9769174973753302,0.05070267617702484,0.1003574579954147,-0.993658721446991,0,0,0,-1,-1,,,,,,,,,,,,,,,,,,1,1
2022-01-24 19:34:26.682 -0500,,,,,,,,,,4924.049745750001,0.080352783203125,0.0829620361328125,-1.026153564453125,4924.04477775,-0.4268348613623414,0.04947424536524897,-0.09886451077310854,0.198313370347023,-0.1140292063355446,-1.384742379188538,0.05904921889305115,-0.02968805283308029,-0.02772235870361328,XArbitraryZVertical,-0.0430439186222181,0.0346062568963819,-0.2126720745827667,0.9755613546891528,0.04921257495880127,0.098703533411026,-0.9938992857933044,0,0,0,-1,-1,,,,,,,,,,,,,,,,,,1,1
2022-01-24 19:34:26.692 -0500,,,,,,,,,,4924.05968275,0.075958251953125,0.093292236328125,-1.036605834960938,4924.05471475,-0.441181434646844,0.04676259750962108,-0.09711023935165408,0.3187974691390991,-0.1377698183059692,-1.463107228279114,0.03382815793156624,-0.01399565488100052,-0.03195303678512573,XArbitraryZVertical,-0.04223751868685042,0.03340285011656394,-0.2195957084719034,0.9741035625734967,0.04652531445026398,0.09695768356323242,-0.9942004680633545,0,0,0,-1,-1,,,,,,,,,,,,,,,,,,1,1
2022-01-24 19:34:26.702 -0500,,,,,,,,,,4924.06961975,0.098663330078125,0.063446044921875,-1.0330810546875,4924.06465175,-0.4558975359886314,0.04399924909693709,-0.09353438125591164,0.5263370275497437,-0.1225240230560303,-1.440182209014893,0.03216615319252014,-0.0001058131456375122,-0.04194051027297974,XArbitraryZVertical,-0.04056415763183981,0.0319674160674816,-0.2266799378360083,0.9725989395458253,0.04379278793931007,0.09339805692434311,-0.994665265083313,0,0,0,-1,-1,,,,,,,,,,,,,,,,,,1,1
2022-01-24 19:34:26.712 -0500,,,,,,,,,,4924.07955675,0.0957794189453125,0.0437164306640625,-1.045745849609375,4924.074588750001,-0.4702749742676354,0.04183324478910286,-0.08761380935155125,0.8026943206787109,-0.06269641220569611,-1.393677353858948,0.05700338259339333,-0.02405571192502975,-0.03778815269470215,XArbitraryZVertical,-0.03771044449422751,0.03052054082194236,-0.2335929946099334,0.9711234434190321,0.04166063293814659,0.08750176429748535,-0.9952928423881531,0,0,0,-1,-1,,,,,,,,,,,,,,,,,,1,1
2022-01-24 19:34:26.722 -0500,,,,,,,,,,4924.089493750001,0.116943359375,0.0082550048828125,-1.0362548828125,4924.08452575,-0.4845532385797535,0.04012032787678262,-0.07862528887927443,1.122238278388977,-0.01439066044986248,-1.392205715179443,0.05579445138573647,-0.03482785075902939,-0.04963737726211548,XArbitraryZVertical,-0.03333832622367232,0.02888524849072752,-0.2404451345894511,0.9696598014787136,0.03998565301299095,0.07854430377483368,-0.9961084127426147,0,0,0,-1,-1,,,,,,,,,,,,,,,,,,1,1
2022-01-24 19:34:26.732 -0500,,,,,,,,,,4924.09943075,0.11737060546875,0.013092041015625,-1.0164794921875,4924.09446175,-0.4989452621168882,0.03998437153966242,-0.06701637742733974,1.290131688117981,0.1633620262145996,-1.409201979637146,0.07706005871295929,-0.05871119350194931,-0.03929704427719116,XArbitraryZVertical,-0.02752547516376588,0.02763085694659775,-0.2473540697460227,0.9681397797209368,0.03988398611545563,0.0669662281870842,-0.9969577789306641,0,0,0,-1,-1,,,,,,,,,,,,,,,,,,1,1
2022-01-24 19:34:26.742 -0500,,,,,,,,,,4924.10936775,0.1048736572265625,-0.0105438232421875,-0.936431884765625,4924.104398750001,-0.5138837129129843,0.04089087387369518,-0.05513306828731128,1.184651494026184,0.2021821290254593,-1.496466636657715,0.07655392587184906,-0.04201305285096169,-0.01883351802825928,XArbitraryZVertical,-0.02145928229755604,0.02676832599793613,-0.2545193680115782,0.9664588546260484,0.04081736505031586,0.05510514229536057,-0.9976459145545959,0,0,0,-1,-1,,,,,,,,,,,,,,,,,,1,1
2022-01-24 19:34:26.752 -0500,,,,,,,,,,4924.11930475,0.1338958740234375,-0.0459136962890625,-0.872039794921875,4924.11433575,-0.5294430209847513,0.041785831394311,-0.04640904175705565,0.6275120973587036,0.1004990041255951,-1.535134553909302,0.06314565241336823,-0.05693614482879639,0.06161946058273315,XArbitraryZVertical,-0.01692474030894876,0.02622760018960478,-0.2619808354421683,0.9645680360190327,0.04172869399189949,0.04639238491654396,-0.9980513453483582,0,0,0,-1,-1,,,,,,,,,,,,,,,,,,1,1
2022-01-24 19:34:26.762 -0500,,,,,,,,,,4924.12924175,0.1036224365234375,-0.02423095703125,-0.92608642578125,4924.12427275,-0.5451678833703606,0.04057238232817604,-0.04380032617269856,0.07991775125265121,-0.2035410404205322,-1.603980660438538,0.09337420761585236,-0.08969995379447937,0.126179039478302,XArbitraryZVertical,-0.01562576821207611,0.02542546718834598,-0.2695287455042578,0.9625297659812833,0.04052235186100006,0.04378632083535194,-0.9982187747955322,0,0,0,-1,-1,,,,,,,,,,,,,,,,,,1,1
2022-01-24 19:34:26.772 -0500,,,,,,,,,,4924.139178750001,0.083343505859375,-0.0026092529296875,-0.9766387939453125,4924.13420975,-0.5616031125726028,0.03745401450497239,-0.04449178975503727,-0.05825795978307724,-0.2405518889427185,-1.695436716079712,0.066214919090271,-0.06870798766613007,0.07222336530685425,XArbitraryZVertical,-0.01618094201436339,0.02415136230561953,-0.2774090012949605,0.9603118860291429,0.03740820288658142,0.04447711259126663,-0.9983097910881042,0,0,0,-1,-1,,,,,,,,,,,,,,,,,,1,1
2022-01-24 19:34:26.782 -0500,,,,,,,,,,4924.14911475,0.0754547119140625,0.0186920166015625,-0.9517364501953125,4924.14414675,-0.5787892368196657,0.03496950296491524,-0.04599923835390864,-0.1382957994937897,-0.1006682962179184,-1.768405914306641,0.0484187975525856,-0.04859217628836632,0.02169275283813477,XArbitraryZVertical,-0.01704982331297548,0.02331426134902124,-0.2856383534779132,0.957902119013308,0.03492539376020432,0.04598301649093628,-0.9983314871788025,0,0,0,-1,-1,,,,,,,,,,,,,,,,,,1,1
2022-01-24 19:34:26.792 -0500,,,,,,,,,,4924.15905175,0.0791168212890625,0.0217742919921875,-0.97705078125,4924.154083750001,-0.5966841555931944,0.0334324485394636,-0.04857891607376116,-0.2552277445793152,-0.0612100288271904,-1.830127596855164,0.04206860437989235,-0.02986768633127213,0.04652571678161621,XArbitraryZVertical,-0.01829912748467844,0.02311017584956506,-0.2941962097604417,0.9552903297346572,0.03338678553700447,0.04855981096625328,-0.9982621073722839,0,0,0,-1,-1,,,,,,,,,,,,,,,,,,1,1
2022-01-24 19:34:26.802 -0500,,,,,,,,,,4924.168988750001,0.09832763671875,0.02154541015625,-1.02197265625,4924.16402075,-0.6146784903664055,0.03140911722722103,-0.05175771924205536,-0.2523337006568909,-0.1745792031288147,-1.795706272125244,0.04775559902191162,-0.02996020019054413,0.02111756801605225,XArbitraryZVertical,-0.0199112169543922,0.02279017549544564,-0.3027723755994805,0.9525822215414517,0.0313619002699852,0.05173461511731148,-0.9981682896614075,0,0,0,-1,-1,,,,,,,,,,,,,,,,,,1,1
2022-01-24 19:34:26.812 -0500,,,,,,,,,,4924.17892575,0.0881805419921875,0.01947021484375,-1.0238037109375,4924.17395775,-0.6320887902803467,0.02850742155622927,-0.05430888780221593,-0.1547019481658936,-0.2104148715734482,-1.721790909767151,0.06986677646636963,-0.0327366515994072,-0.02385270595550537,XArbitraryZVertical,-0.02137535061683123,0.02198026424593864,-0.3110309942844373,0.9499050715335194,0.02846153639256954,0.05428219586610794,-0.9981199502944946,0,0,0,-1,-1,,,,,,,,,,,,,,,,,,1,1
2022-01-24 19:34:26.822 -0500,,,,,,,,,,4924.18886275,0.077301025390625,0.038543701171875,-1.027801513671875,4924.18389475,-0.6487915551403551,0.02542575739261603,-0.0559393272322908,-0.07801169157028198,-0.2111475020647049,-1.648346781730652,0.06279796361923218,-0.03643980249762535,-0.02569061517715454,XArbitraryZVertical,-0.02245490557634774,0.020957843120512,-0.3189227104634034,0.947282835003198,0.02538325078785419,0.05591015890240669,-0.9981130957603455,0,0,0,-1,-1,,,,,,,,,,,,,,,,,,1,1
2022-01-24 19:34:26.832 -0500,,,,,,,,,,4924.19879975,0.0618133544921875,0.0534210205078125,-1.019317626953125,4924.19383175,-0.6649774635124486,0.02237259023209071,-0.0565139637673971,0.03450233489274979,-0.2235909402370453,-1.610472798347473,0.05496668815612793,-0.01794003322720528,-0.0296478271484375,XArbitraryZVertical,-0.02305457245856377,0.01979038990601346,-0.326544503452733,0.944693290488841,0.02233500964939594,0.05648388713598251,-0.9981536269187927,0,0,0,-1,-1,,,,,,,,,,,,,,,,,,1,1
2022-01-24 19:34:26.841 -0500,,,,,,,,,,4924.208736750001,0.0593414306640625,0.046051025390625,-0.980194091796875,4924.203768750001,-0.6809107897666684,0.01947059115387041,-0.05636862656668599,0.05066745728254318,-0.1794900596141815,-1.596444606781006,0.0423755869269371,-0.002917598932981491,-0.02109509706497192,XArbitraryZVertical,-0.02331240201971636,0.01858223976300606,-0.3340265548135715,0.9420920474264416,0.01943843811750412,0.05633877962827682,-0.9982224702835083,0,0,0,-1,-1,,,,,,,,,,,,,,,,,,1,1
2022-01-24 19:34:26.852 -0500,,,,,,,,,,4924.218673750001,0.0518646240234375,0.03997802734375,-0.9766082763671875,4924.21370475,-0.6968283244964379,0.01674128715150638,-0.05594268429910842,0.1045088544487953,-0.166249692440033,-1.604727506637573,0.04262778162956238,-0.009862311184406281,0.01810163259506226,XArbitraryZVertical,-0.02342969383162588,0.01741258048702017,-0.3414822375821078,0.9394347133444539,0.01671431586146355,0.05591350793838501,-0.9982957243919373,0,0,0,-1,-1,,,,,,,,,,,,,,,,,,1,1
2022-01-24 19:34:26.861 -0500,,,,,,,,,,4924.22861075,0.038543701171875,0.0411529541015625,-0.982574462890625,4924.223641750001,-0.7130726725313675,0.0148314936304167,-0.05454759147396064,0.2293493151664734,-0.05588670447468758,-1.663495779037476,0.03705640137195587,-0.01454233378171921,0.02179455757141113,XArbitraryZVertical,-0.02296737831137604,0.01646467957897324,-0.3490806267193315,0.9366664116065441,0.0148088913410902,0.05452054366469383,-0.9984028339385986,0,0,0,-1,-1,,,,,,,,,,,,,,,,,,1,1
2022-01-24 19:34:26.871 -0500,,,,,,,,,,4924.23854775,0.0401611328125,0.0198974609375,-0.967529296875,4924.233578750001,-0.7300359381114089,0.01400190454374314,-0.05193594291571438,0.3320024609565735,0.0755767822265625,-1.739344477653503,0.0245617963373661,-0.01075944676995277,0.01597929000854492,XArbitraryZVertical,-0.02175557324620004,0.01580587062485949,-0.3570068029912634,0.9337145649064442,0.01398256793618202,0.05191259831190109,-0.9985537528991699,0,0,0,-1,-1,,,,,,,,,,,,,,,,,,1,1
2022-01-24 19:34:26.881 -0500,,,,,,,,,,4924.24848475,0.0738677978515625,0.0020904541015625,-0.9759979248046875,4924.24351575,-0.7476944671208489,0.01382527862325374,-0.04913394608052889,0.2634364366531372,0.0261722132563591,-1.804121017456055,0.02635363861918449,-0.02921650931239128,0.03116846084594727,XArbitraryZVertical,-0.02034355592559427,0.01540392004685158,-0.3652388036596187,0.9305639716359093,0.01380815356969833,0.04911417886614799,-0.9986976981163025,0,0,0,-1,-1,,,,,,,,,,,,,,,,,,1,1
2022-01-24 19:34:26.891 -0500,,,,,,,,,,4924.258421750001,0.0890045166015625,0.02569580078125,-0.9850006103515625,4924.25345275,-0.7658067349665865,0.01217578205972685,-0.04736081935778037,0.136336550116539,-0.1613579094409943,-1.82966411113739,0.06170662492513657,-0.04525244235992432,0.02280676364898682,XArbitraryZVertical,-0.01968922847953566,0.01449178150381439,-0.373637208924976,0.9272526439732439,0.01216182857751846,0.04734311625361443,-0.9988046288490295,0,0,0,-1,-1,,,,,,,,,,,,,,,,,,1,1
2022-01-24 19:34:26.901 -0500,,,,,,,,,,4924.26835775,0.0618133544921875,0.0553131103515625,-0.9976806640625,4924.26338975,-0.7843150431171466,0.009570725175918416,-0.04695137651994446,-0.01723090000450611,-0.182977706193924,-1.902407050132751,0.07944513857364655,-0.02123809605836868,0.01385164260864258,XArbitraryZVertical,-0.01986295571589394,0.01339193784668635,-0.3821771638218879,0.9237784928184445,0.009560031816363335,0.04693412780761719,-0.9988522529602051,0,0,0,-1,-1,,,,,,,,,,,,,,,,,,1,1
2022-01-24 19:34:26.911 -0500,,,,,,,,,,4924.27829475,0.0513458251953125,0.064117431640625,-1.038192749023438,4924.273326750001,-0.8037772883301385,0.007107362765141078,-0.04804260559544316,-0.1674568802118301,-0.1174981072545052,-2.014864683151245,0.05471489578485489,0.007289227098226547,0.001140296459197998,XArbitraryZVertical,-0.02071546991968888,0.01266473263741957,-0.3911204659232075,0.9200190604124113,0.00709910225123167,0.04802412539720535,-0.998820960521698,0,0,0,-1,-1,,,,,,,,,,,,,,,,,,1,1
2022-01-24 19:34:26.921 -0500,,,,,,,,,,4924.288231750001,0.0615234375,0.070648193359375,-1.06109619140625,4924.283263750001,-0.8243056797265822,0.005641988638434675,-0.05016360989763435,-0.2193728089332581,0.05584118515253067,-2.107686281204224,0.04571160674095154,0.0139751173555851,-0.03946655988693237,XArbitraryZVertical,-0.02184928391573122,0.01263019890545114,-0.4005200779349259,0.9159402588059447,0.005634861532598734,0.05014257505536079,-0.9987261891365051,0,0,0,-1,-1,,,,,,,,,,,,,,,,,,1,1
2022-01-24 19:34:26.931 -0500,,,,,,,,,,4924.298168750001,0.069671630859375,0.0671844482421875,-1.046737670898438,4924.29320075,-0.8455304265167022,0.006545172118844369,-0.05268439936505895,-0.2723095417022705,0.351666659116745,-2.154735326766968,0.05498802661895752,0.01798843592405319,-0.06250506639480591,XArbitraryZVertical,-0.02267785041030208,0.01378989118596649,-0.410217862086879,0.911601197451802,0.006536044180393219,0.0526600293815136,-0.9985911250114441,0,0,0,-1,-1,,,,,,,,,,,,,,,,,,1,1
2022-01-24 19:34:26.941 -0500,,,,,,,,,,4924.30810575,0.060791015625,0.0695648193359375,-1.046432495117188,4924.30313775,-0.867253354455691,0.009761589768850722,-0.05602763192936631,-0.3792354464530945,0.4958922564983368,-2.21704888343811,0.05992614105343819,0.01118640974164009,-0.04835432767868042,XArbitraryZVertical,-0.0233675281809698,0.01619604879212168,-0.4201188060442492,0.9070235019630286,0.009746117517352104,0.05599832534790039,-0.9983832836151123,0,0,0,-1,-1,,,,,,,,,,,,,,,,,,1,1
2022-01-24 19:34:26.951 -0500,,,,,,,,,,4924.31804275,0.0614013671875,0.0823974609375,-1.044143676757812,4924.31307475,-0.8892231043114991,0.01379489620353694,-0.06066297564335829,-0.496720016002655,0.604853093624115,-2.181594848632812,0.04702255129814148,0.008939336985349655,-0.04836684465408325,XArbitraryZVertical,-0.02441249044709486,0.01926743262510994,-0.430088019403868,0.902251085769888,0.01376908458769321,0.06062577664852142,-0.9980655908584595,0,0,0,-1,-1,,,,,,,,,,,,,,,,,,1,1
2022-01-24 19:34:26.961 -0500,,,,,,,,,,4924.32797975,0.094024658203125,0.1118927001953125,-1.05975341796875,4924.323011750001,-0.9108208267759522,0.01954966050461586,-0.06616419041962966,-0.5155009031295776,0.8191560506820679,-2.158562421798706,0.04189633950591087,0.0162818431854248,-0.04652237892150879,XArbitraryZVertical,-0.02540669813486139,0.02332082544887972,-0.4398596517977682,0.8974040216241024,0.01950564235448837,0.06611592322587967,-0.9976212978363037,0,0,0,-1,-1,,,,,,,,,,,,,,,,,,1,1
2022-01-24 19:34:26.971 -0500,,,,,,,,,,4924.337916750001,0.126220703125,0.100250244140625,-1.051925659179688,4924.33294775,-0.9317142947158163,0.02647977788921193,-0.07123559731178022,-0.4081520438194275,0.8299102187156677,-2.053438901901245,0.06761573255062103,0.04071766138076782,-0.06263923645019531,XArbitraryZVertical,-0.02586947469006815,0.02781549312699748,-0.4492857833473927,0.8925800443003675,0.02640953287482262,0.07117536664009094,-0.9971141219139099,0,0,0,-1,-1,,,,,,,,,,,,,,,,,,1,1
2022-01-24 19:34:26.981 -0500,,,,,,,,,,4924.34785375,0.1274261474609375,0.0767669677734375,-1.044769287109375,4924.34288475,-0.9514649754270468,0.03213877281259143,-0.07543842556673161,-0.3294455409049988,0.6143984198570251,-1.948015570640564,0.09417945146560669,0.0248836874961853,-0.05528467893600464,XArbitraryZVertical,-0.02616443572468431,0.03154291738462094,-0.4581435645629688,0.8879328490854447,0.03204184770584106,0.07536689192056656,-0.9966409206390381,0,0,0,-1,-1,,,,,,,,,,,,,,,,,,1,1
2022-01-24 19:34:26.991 -0500,,,,,,,,,,4924.35779075,0.1309051513671875,0.0443572998046875,-1.040512084960938,4924.352821750001,-0.9703362629058856,0.03522471146983033,-0.07881363935382477,-0.229011058807373,0.3156528174877167,-1.854588270187378,0.09231862425804138,-0.001964770257472992,-0.04849177598953247,XArbitraryZVertical,-0.02663786411923007,0.03393698026269078,-0.4665365600233085,0.8834489774182783,0.03510810434818268,0.07873207330703735,-0.996277391910553,0,0,0,-1,-1,,,,,,,,,,,,,,,,,,1,1
2022-01-24 19:34:27.000 -0500,,,,,,,,,,4924.36772775,0.1224822998046875,0.0424346923828125,-1.028427124023438,4924.36275875,-0.9882320418250983,0.03588107706818709,-0.08145545397381716,-0.1890343427658081,0.1129955947399139,-1.752031445503235,0.09515130519866943,-0.03700774908065796,-0.04446923732757568,XArbitraryZVertical,-0.0273396797175473,0.03508752632437968,-0.4744271544005564,0.8791700886149479,0.03575443476438522,0.08136540651321411,-0.996042788028717,0,0,0,-1,-1,,,,,,,,,,,,,,,,,,1,1
2022-01-24 19:34:27.010 -0500,,,,,,,,,,4924.37766475,0.0892333984375,0.05181884765625,-1.038558959960938,4924.37269575,-1.005203047595665,0.03491913326209225,-0.08420965448200868,-0.2567194104194641,-0.009852834045886993,-1.676267266273499,0.08769455552101135,-0.04167510569095612,-0.03257805109024048,XArbitraryZVertical,-0.02847878508509522,0.03555915523765833,-0.4818506963062736,0.8750681723939372,0.03478832542896271,0.08411016315221786,-0.9958490133285522,0,0,0,-1,-1,,,,,,,,,,,,,,,,,,1,1
2022-01-24 19:34:27.020 -0500,,,,,,,,,,4924.387601750001,0.064483642578125,0.0619354248046875,-1.054107666015625,4924.38263275,-1.021689342060844,0.03342267131605716,-0.08806596845472378,-0.4182432889938354,0.01242903433740139,-1.647439241409302,0.05594702064990997,-0.03613296151161194,-0.04299050569534302,XArbitraryZVertical,-0.03023149055569504,0.0360814150619895,-0.4890138208996773,0.8710049694437524,0.03328695148229599,0.08795218169689178,-0.9955683946609497,0,0,0,-1,-1,,,,,,,,,,,,,,,,,,1,1
2022-01-24 19:34:27.030 -0500,,,,,,,,,,4924.39753775,0.0688323974609375,0.0703125,-1.100723266601562,4924.39256975,-1.037518681255709,0.03292479899452262,-0.0935933273714811,-0.5798356533050537,0.1806880831718445,-1.55296528339386,0.03170943260192871,-0.03152093291282654,-0.05902385711669922,XArbitraryZVertical,-0.03246671838766045,0.03747055048512166,-0.4958619595564775,0.8669848243781151,0.03277477622032166,0.09345674514770508,-0.995083749294281,0,0,0,-1,-1,,,,,,,,,,,,,,,,,,1,1
2022-01-24 19:34:27.040 -0500,,,,,,,,,,4924.40747475,0.079803466796875,0.0826568603515625,-1.131851196289062,4924.402506750001,-1.052031145978022,0.03428128305651205,-0.1005234408928674,-0.7210034728050232,0.377082884311676,-1.392857909202576,0.03473141044378281,-0.03004134446382523,-0.1063559651374817,XArbitraryZVertical,-0.03484749994676801,0.0400256924677781,-0.5021285426069694,0.8631629766204596,0.03410154208540916,0.1003542318940163,-0.9943671822547913,0,0,0,-1,-1,,,,,,,,,,,,,,,,,,1,1
2022-01-24 19:34:27.050 -0500,,,,,,,,,,4924.417411750001,0.081817626953125,0.0939483642578125,-1.140228271484375,4924.41244375,-1.06479481290534,0.03785343026068367,-0.1087463585176706,-0.8520277738571167,0.6110514998435974,-1.23616898059845,0.04218317568302155,-0.02587489783763885,-0.1384702920913696,XArbitraryZVertical,-0.03722362618463524,0.04386336294037362,-0.5076456519467851,0.8596429997511924,0.03762084245681763,0.108532153069973,-0.9933807849884033,0,0,0,-1,-1,,,,,,,,,,,,,,,,,,1,1
2022-01-24 19:34:27.060 -0500,,,,,,,,,,4924.42734875,0.1009063720703125,0.09619140625,-1.141204833984375,4924.42238075,-1.076169151086641,0.04354031182648382,-0.1183774743251783,-0.9876028895378113,0.7901250720024109,-1.115040421485901,0.03859623521566391,-0.02415242791175842,-0.1481677293777466,XArbitraryZVertical,-0.03964656405503136,0.04896853190731801,-0.5125792681295099,0.8563249558047635,0.04322193935513496,0.1181011945009232,-0.9920604825019836,0,0,0,-1,-1,,,,,,,,,,,,,,,,,,1,1
2022-01-24 19:34:27.070 -0500,,,,,,,,,,4924.43728575,0.11309814453125,0.100006103515625,-1.132644653320312,4924.43231775,-1.086137661979666,0.05075951612267519,-0.1289498759455155,-1.029498219490051,0.8848814368247986,-0.9659649133682251,0.05059044808149338,-0.03240099549293518,-0.1507845520973206,XArbitraryZVertical,-0.04205599161069549,0.05496546234703879,-0.5169257531754371,0.8532277987503331,0.050316471606493,0.1285928040742874,-0.9904201626777649,0,0,0,-1,-1,,,,,,,,,,,,,,,,,,1,1
2022-01-24 19:34:27.080 -0500,,,,,,,,,,4924.44722275,0.131378173828125,0.10711669921875,-1.119583129882812,4924.44225475,-1.094420993680577,0.05793289374765861,-0.1393598654938486,-0.9522742033004761,0.7502806782722473,-0.7815061211585999,0.05575952306389809,-0.03890269994735718,-0.1440008282661438,XArbitraryZVertical,-0.04439936048138068,0.06088371105956027,-0.5205487744006375,0.8505002268557877,0.05733915418386459,0.1389092206954956,-0.9886437654495239,0,0,0,-1,-1,,,,,,,,,,,,,,664763667.0670536,0,-0.0199995,100.5614,1,1
2022-01-24 19:34:27.090 -0500,,,,,,,,,,4924.45715975,0.1161041259765625,0.107635498046875,-1.080703735351562,4924.45219075,-1.100840939875502,0.06346867208088246,-0.1480127779581917,-0.6820009350776672,0.5399684309959412,-0.596895694732666,0.0686461329460144,-0.04035583138465881,-0.132508397102356,XArbitraryZVertical,-0.04643640493699976,0.06562269471783086,-0.5233508584902651,0.8483165728481972,0.06273257732391357,0.147472932934761,-0.9870746731758118,0,0,0,-1,-1,4924.436048750001,unknown,2,2022-01-24 19:34:27.067 -0500,,,,,,,,,,,,,,1,1
2022-01-24 19:34:27.100 -0500,,,,,,,,,,4924.467096750001,0.1202239990234375,0.09942626953125,-1.032806396484375,4924.46212775,-1.105529762660185,0.06652530596136064,-0.1533229688268102,-0.3310087919235229,0.2088176906108856,-0.3890716433525085,0.05040822923183441,-0.045087069272995,-0.09462058544158936,XArbitraryZVertical,-0.04773501459290214,0.06840958435314544,-0.5253784270883957,0.8467695870460914,0.06569641828536987,0.152722954750061,-0.9860829710960388,0,0,0,-1,-1,,,,,,,,,,,,,,,,,,1,1
2022-01-24 19:34:27.110 -0500,,,,,,,,,,4924.47703375,0.1284942626953125,0.0962982177734375,-0.9983673095703125,4924.47206475,-1.107754461449088,0.06667104998799257,-0.1549863896680972,0.01941978931427002,-0.1045119985938072,-0.07773853093385696,0.05440141260623932,-0.05493997037410736,-0.04698771238327026,XArbitraryZVertical,-0.04832653095862927,0.06895840079070872,-0.526313281839304,0.8461108839045366,0.06582311540842056,0.1543666571378708,-0.9858185648918152,0,0,0,-1,-1,,,,,,,,,,,,,,,,,,1,1
2022-01-24 19:34:27.138 -0500,,,,,,,,,,4924.48697075,0.1140289306640625,0.0868988037109375,-0.9882659912109375,4924.482001750001,-1.107226201557485,0.0640734471206897,-0.153205264387919,0.3121528625488281,-0.4466426968574524,0.1889597326517105,0.06521515548229218,-0.05630800127983093,-0.01210814714431763,XArbitraryZVertical,-0.04827192752833688,0.06738175257348794,-0.5260384106348954,0.8464117371493667,0.06327963620424271,0.1526066362857819,-0.9862590432167053,0,0,0,-1,-1,,,,,,,,,,,,,,,,,,1,1
2022-01-24 19:34:27.140 -0500,,,,,,,,,,4924.49690775,0.101226806640625,0.0674896240234375,-0.9546356201171875,4924.49193875,-1.104515047356642,0.05815696413240627,-0.1489951410361059,0.4901846647262573,-0.8110615611076355,0.3908553123474121,0.05654924362897873,-0.06154528260231018,-0.00101703405380249,XArbitraryZVertical,-0.04812708112394173,0.06371316323928705,-0.5247765174516965,0.8474868615218901,0.05748021230101585,0.1484444886445999,-0.9872488379478455,0,0,0,-1,-1,,,,,,,,,,,,,,,,,,1,1
2022-01-24 19:34:27.144 -0500,,,,,,,,,,4924.50684375,0.0651702880859375,0.06048583984375,-0.905517578125,4924.50187575,-1.100120725702463,0.04968653907791762,-0.1436501340072341,0.5097583532333374,-1.007331490516663,0.5320454835891724,0.05207280442118645,-0.07566656172275543,0.03384310007095337,XArbitraryZVertical,-0.04820713139009807,0.05862382687944413,-0.5227497159564847,0.8491007247468296,0.04915453866124153,0.1431566029787064,-0.9884786605834961,0,0,0,-1,-1,,,,,,,,,,,,,,,,,,1,1
2022-01-24 19:34:27.149 -0500,,,,,,,,,,4924.51678075,0.0352020263671875,0.0538482666015625,-0.9031219482421875,4924.51181275,-1.094626212060575,0.03983356861580798,-0.1387030900596771,0.4384332895278931,-1.135820746421814,0.5999045372009277,0.02573024481534958,-0.07777254283428192,0.08409303426742554,XArbitraryZVertical,-0.04882288999069168,0.05301956429692083,-0.5202192836904037,0.8509858508709712,0.0394405797123909,0.138258770108223,-0.989610493183136,0,0,0,-1,-1,,,,,,,,,,,,,,,,,,1,1
2022-01-24 19:34:27.159 -0500,,,,,,,,,,4924.52671775,0.031585693359375,0.0585784912109375,-0.943115234375,4924.521749750001,-1.088431955513083,0.02829592228683838,-0.1342418353727684,0.396817147731781,-1.357685685157776,0.6752660870552063,0.007164960727095604,-0.07999034225940704,0.08748453855514526,XArbitraryZVertical,-0.05006700819430298,0.0467985228895364,-0.5173417552498248,0.8530302607429637,0.02803760394454002,0.1338390111923218,-0.9906063675880432,0,0,0,-1,-1,,,,,,,,,,,,,,,,,,1,1
2022-01-24 19:34:27.169 -0500,,,,,,,,,,4924.536654750001,0.049774169921875,0.060791015625,-0.9816436767578125,4924.531686750001,-1.080716982726413,0.01494978726164561,-0.1303280856602562,0.3706331849098206,-1.52542781829834,0.8933030962944031,0.01676379144191742,-0.07138055562973022,0.0482933521270752,XArbitraryZVertical,-0.05200144106251723,0.03989480636619536,-0.5137546523708004,0.8554298333428113,0.01482245046645403,0.12995944917202,-0.9914085268974304,0,0,0,-1,-1,,,,,,,,,,,,,,,,,,1,1
2022-01-24 19:34:27.179 -0500,,,,,,,,,,4924.546591750001,0.03533935546875,0.059814453125,-0.9807586669921875,4924.54162375,-1.070613121663288,0.0009294522961998601,-0.1268060394511038,0.3200855851173401,-1.544489979743958,1.124510526657104,0.04885273799300194,-0.06567506492137909,0.0103268027305603,XArbitraryZVertical,-0.05426060202510516,0.03271943804896404,-0.5091050945396817,0.8583687660270395,0.0009219895000569522,0.1264664828777313,-0.9919704794883728,0,0,0,-1,-1,,,,,,,,,,,,,,,,,,1,1
2022-01-24 19:34:27.189 -0500,,,,,,,,,,4924.55652875,0.019073486328125,0.058502197265625,-0.9876556396484375,4924.55156075,-1.058494687978861,-0.01277096605595756,-0.1236647864448025,0.3334530591964722,-1.516472578048706,1.269263982772827,0.04801301285624504,-0.06353498250246048,0.01152372360229492,XArbitraryZVertical,-0.05655559129865921,0.02569635176331073,-0.5035680956302502,0.8617194055181208,-0.01267309300601482,0.1233498305082321,-0.9922823309898376,0,0,0,-1,-1,,,,,,,,,,,,,,,,,,1,1
2022-01-24 19:34:27.199 -0500,,,,,,,,,,4924.566465916667,0.003631591796875,0.0662689208984375,-1.025604248046875,4924.56149775,-1.045444731700921,-0.02605227651281618,-0.1202915266613173,0.4065645933151245,-1.488045692443848,1.318901658058167,0.04493514820933342,-0.06149905920028687,0.004781186580657959,XArbitraryZVertical,-0.0585695000962544,0.01874063226676987,-0.4976173943017465,0.8652140023889834,-0.02586109004914761,0.1200016289949417,-0.9924368262290955,0,0,0,-1,-1,,,,,,,,,,,,,,,,,,1,1
2022-01-24 19:34:27.209 -0500,,,,,,,,,,4924.576402916667,0.01580810546875,0.0709075927734375,-1.07562255859375,4924.571433916667,-1.031476753459069,-0.03941246656031893,-0.1160292809319294,0.5411588549613953,-1.527611255645752,1.457230448722839,0.04276949912309647,-0.04949981719255447,-0.03309941291809082,XArbitraryZVertical,-0.0601321961324033,0.01147683357490583,-0.4912580859925248,0.8688601271062178,-0.0391373299062252,0.1157691106200218,-0.9925047755241394,0,0,0,-1,-1,,,,,,,,,,,,,,,,,,1,1
2022-01-24 19:34:27.219 -0500,,,,,,,,,,4924.586339916667,0.00555419921875,0.0803680419921875,-1.080551147460938,4924.581370916667,-1.015744324981327,-0.05241320470709371,-0.1109341125110062,0.6142016649246216,-1.411545634269714,1.625944852828979,0.06787587702274323,-0.03979875892400742,-0.0831342339515686,XArbitraryZVertical,-0.0611483107470332,0.004090596889040521,-0.4841351142941179,0.8728443610733334,-0.05206717923283577,0.1107067167758942,-0.9924883246421814,0,0,0,-1,-1,,,,,,,,,,,,,,,,,,1,1
2022-01-24 19:34:27.229 -0500,,,,,,,,,,4924.596276916667,-0.020751953125,0.0823974609375,-1.053115844726562,4924.591307916667,-0.9987519277804203,-0.06266182062506848,-0.1061452411256505,0.5287259221076965,-0.9981453418731689,1.700827956199646,0.06782317906618118,-0.02557763457298279,-0.08813083171844482,XArbitraryZVertical,-0.06152685165594238,-0.002070705161547483,-0.4765100122270639,0.8770110464758384,-0.06226838380098343,0.1059460341930389,-0.9924203157424927,0,0,0,-1,-1,,,,,,,,,,,,,,,,,,1,1
2022-01-24 19:34:27.239 -0500,,,,,,,,,,4924.606213916667,-0.0225372314453125,0.08050537109375,-1.033004760742188,4924.601244916667,-0.9815095630565265,-0.06866473281354089,-0.1026474008772577,0.39883953332901,-0.5985817313194275,1.695550680160522,0.04749830067157745,-0.0200694352388382,-0.06072354316711426,XArbitraryZVertical,-0.06137588885756305,-0.006070988709714844,-0.4688406593884497,0.8811268832932272,-0.0682496502995491,0.1024672389030457,-0.9923923015594482,0,0,0,-1,-1,,,,,,,,,,,,,,,,,,1,1
2022-01-24 19:34:27.249 -0500,,,,,,,,,,4924.616150916667,0.0027618408203125,0.060821533203125,-1.04498291015625,4924.611181916667,-0.964255969971884,-0.07230305177288203,-0.1001552911954882,0.3526754975318909,-0.5235427618026733,1.713936567306519,0.04934142529964447,-0.01948222517967224,-0.0406157374382019,XArbitraryZVertical,-0.0610593533633872,-0.008789081816529053,-0.461178826059661,0.8851601085099635,-0.07187805324792862,0.0999879315495491,-0.9923890233039856,0,0,0,-1,-1,,,,,,,,,,,,,,,,,,1,1
2022-01-24 19:34:27.259 -0500,,,,,,,,,,4924.626087916667,0.0079803466796875,0.0573272705078125,-1.022689819335938,4924.621118916667,-0.9464877460770477,-0.07649737372751238,-0.09803152347965852,0.3423411250114441,-0.6757597327232361,1.808050751686096,0.07881832122802734,-0.03705272078514099,-0.05269461870193481,XArbitraryZVertical,-0.06098694967502319,-0.01168083262635937,-0.4532280252793661,0.8892291231178452,-0.0760558620095253,0.09787458181381226,-0.9922882914543152,0,0,0,-1,-1,,,,,,,,,,,,,,,,,,1,1
2022-01-24 19:34:27.269 -0500,,,,,,,,,,4924.636023916667,0.0163421630859375,0.08428955078125,-0.9905242919921875,4924.631055916667,-0.9274073567216395,-0.08189336640083333,-0.0958423208277954,0.4073196053504944,-0.7590362429618835,1.976275086402893,0.08940741419792175,-0.03836807608604431,-0.03061521053314209,XArbitraryZVertical,-0.06109630951866193,-0.01516329652115179,-0.4446219969960234,0.8935034605050024,-0.08142644166946411,0.09569565951824188,-0.9920746088027954,0,0,0,-1,-1,,,,,,,,,,,,,,,,,,1,1
2022-01-24 19:34:27.279 -0500,,,,,,,,,,4924.645960916667,0.0267486572265625,0.0995941162109375,-0.958740234375,4924.640992916667,-0.9058078524394501,-0.08697541379903688,-0.09282008415157685,0.5511454343795776,-0.6932793259620667,2.303507566452026,0.102834664285183,-0.008397005498409271,0.001407325267791748,XArbitraryZVertical,-0.0606793758355977,-0.0187673150586432,-0.4348805363422229,0.8982453854605003,-0.08649186789989471,0.09268686175346375,-0.9919316172599792,0,0,0,-1,-1,,,,,,,,,,,,,,,,,,1,1
2022-01-24 19:34:27.289 -0500,,,,,,,,,,4924.655897916667,0.025726318359375,0.083648681640625,-0.94580078125,4924.650929916667,-0.8805648311142921,-0.09137469712246038,-0.08915538102874791,0.6454905867576599,-0.6448763608932495,2.659738779067993,0.1176344826817513,0.01055708527565002,0.03313285112380981,XArbitraryZVertical,-0.05971657152776639,-0.02230210645272956,-0.4234861624713556,0.9036568984007098,-0.09088518470525742,0.08903731405735016,-0.9918730854988098,0,0,0,-1,-1,,,,,,,,,,,,,,,,,,1,1
2022-01-24 19:34:27.299 -0500,,,,,,,,,,4924.665834916667,-0.0078277587890625,0.0617218017578125,-0.9215850830078125,4924.660866916667,-0.8520957827429286,-0.09565358052218036,-0.08492673414324205,0.7288855910301208,-0.7162474393844604,2.918654680252075,0.1208905279636383,-0.001175731420516968,0.04604023694992065,XArbitraryZVertical,-0.05835187065184825,-0.02597180051779869,-0.4105824806241455,0.9095836398334717,-0.09516356140375137,0.08482468128204346,-0.9918410778045654,0,0,0,-1,-1,,,,,,,,,,,,,,,,,,1,1
2022-01-24 19:34:27.308 -0500,,,,,,,,,,4924.675771916667,-0.0458221435546875,0.038665771484375,-0.8955535888671875,4924.670803916667,-0.8217465621476769,-0.1008349038733254,-0.08060754678620588,0.7210042476654053,-0.8155739903450012,3.04853343963623,0.09251014888286591,-0.01879823207855225,0.07010477781295776,XArbitraryZVertical,-0.05700481307056157,-0.03009130125530145,-0.3967170293135012,0.9156748396966446,-0.1003372520208359,0.08052027970552444,-0.991689920425415,0,0,0,-1,-1,,,,,,,,,,,,,,,,,,1,1
2022-01-24 19:34:27.318 -0500,,,,,,,,,,4924.685708916667,-0.1112060546875,0.0369415283203125,-0.8726806640625,4924.680740916667,-0.7905104771698729,-0.1067730768178627,-0.07718034003204714,0.5839231014251709,-0.8552675843238831,3.099388837814331,0.0604315847158432,-0.03843773156404495,0.09579157829284668,XArbitraryZVertical,-0.0560863384621628,-0.03437622797446794,-0.382308975761267,0.921689862415745,-0.1062530651688576,0.07710374146699905,-0.9913451671600342,0,0,0,-1,-1,,,,,,,,,,,,,,,,,,1,1
2022-01-24 19:34:27.329 -0500,,,,,,,,,,4924.695645916667,-0.1648101806640625,0.0315704345703125,-0.874298095703125,4924.690676916667,-0.7599769150637763,-0.112812667037101,-0.0756638830610973,0.4021405577659607,-0.8033454418182373,2.929853200912476,0.001046061515808105,-0.03864996880292892,0.1181197166442871,XArbitraryZVertical,-0.05596471008277549,-0.03831099612263492,-0.3680746539744095,0.927319382213149,-0.1122514382004738,0.07559170573949814,-0.9908004403114319,0,0,0,-1,-1,,,,,,,,,,,,,,,,,,1,1
2022-01-24 19:34:27.338 -0500,,,,,,,,,,4924.705582916667,-0.2099456787109375,0.0274810791015625,-0.87237548828125,4924.700613916667,-0.7317664339547104,-0.1182063389445179,-0.07484241627949438,0.415793776512146,-0.6916441917419434,2.677922487258911,-0.04720838367938995,-0.04320193827152252,0.1159437298774719,XArbitraryZVertical,-0.05599356140112932,-0.04175843165642384,-0.354835831900928,0.9323155973456425,-0.1176011189818382,0.07477256655693054,-0.9902418851852417,0,0,0,-1,-1,,,,,,,,,,,,,,,,,,1,1
2022-01-24 19:34:27.348 -0500,,,,,,,,,,4924.715519916667,-0.2347869873046875,0.013702392578125,-0.85748291015625,4924.710550916667,-0.7058908230454434,-0.1219141387075192,-0.07333763837583693,0.5208559632301331,-0.4348475933074951,2.450311183929443,-0.08865952491760254,-0.0457906648516655,0.1175341010093689,XArbitraryZVertical,-0.05538031619182541,-0.0444770673346239,-0.3426935603055704,0.9367581509935045,-0.12128546833992,0.07327191531658173,-0.9899096488952637,0,0,0,-1,-1,,,,,,,,,,,,,,,,,,1,1
2022-01-24 19:34:27.358 -0500,,,,,,,,,,4924.725456916667,-0.21722412109375,-0.023284912109375,-0.8799591064453125,4924.720487916667,-0.6820668738558102,-0.1227025757095089,-0.07045482930155746,0.6165076494216919,-0.1127063110470772,2.227842569351196,-0.1126950457692146,-0.05669400095939636,0.1325362324714661,XArbitraryZVertical,-0.05362337047943065,-0.04598832100040427,-0.3315897398873695,0.9407751266543295,-0.122091256082058,0.07039655745029449,-0.9900192022323608,0,0,0,-1,-1,,,,,,,,,,,,,,,,,,1,1
2022-01-24 19:34:27.368 -0500,,,,,,,,,,4924.735393916667,-0.15899658203125,-0.0241546630859375,-0.886932373046875,4924.730424916667,-0.6597714425846084,-0.1216501818131891,-0.06727607514729488,0.5385854244232178,0.01247317809611559,2.170707225799561,-0.09614759683609009,-0.09051010012626648,0.1104050874710083,XArbitraryZVertical,-0.05143949398027613,-0.04660301981722976,-0.321218796812228,0.9444578634556761,-0.121075838804245,0.06722533702850342,-0.9903642535209656,0,0,0,-1,-1,,,,,,,,,,,,,,,,,,1,1
2022-01-24 19:34:27.378 -0500,,,,,,,,,,4924.745330916667,-0.147216796875,0.03863525390625,-0.855682373046875,4924.740361916667,-0.6375742027715554,-0.1189836230932837,-0.06575506964484212,0.2871915698051453,0.264045774936676,2.225264310836792,-0.04054933786392212,-0.08986222743988037,0.1038515567779541,XArbitraryZVertical,-0.04978475371803216,-0.04614632994927274,-0.310835497367813,0.948036528877263,-0.1184465512633324,0.06570769846439362,-0.9907839894294739,0,0,0,-1,-1,,,,,,,,,,,,,,,,,,1,1
2022-01-24 19:34:27.388 -0500,,,,,,,,,,4924.755266916667,-0.099700927734375,0.03131103515625,-0.912689208984375,4924.750298916667,-0.6143465944774908,-0.1136459355335587,-0.0667751841718109,0.0488024465739727,0.4594712257385254,2.463746547698975,-0.03406736999750137,-0.02809020131826401,0.1356525421142578,XArbitraryZVertical,-0.04893001600803673,-0.04402680322378093,-0.2999021565021923,0.9516963720336071,-0.1131487339735031,0.06672557443380356,-0.9913349747657776,0,0,0,-1,-1,,,,,,,,,,,,,,,,,,1,1
2022-01-24 19:34:27.398 -0500,,,,,,,,,,4924.765203916667,-0.0897674560546875,-0.0075225830078125,-0.9269561767578125,4924.760235916667,-0.5882042773808549,-0.1068172017820609,-0.07018107577429156,-0.1599843204021454,0.5383924245834351,2.835805892944336,0.006651505827903748,-0.03881233930587769,0.07916355133056641,XArbitraryZVertical,-0.04899432113649501,-0.04090415750948117,-0.2874966956330007,0.9556525795308519,-0.1063517406582832,0.07012347877025604,-0.9918528199195862,0,0,0,-1,-1,,,,,,,,,,,,,,,,,,1,1
2022-01-24 19:34:27.408 -0500,,,,,,,,,,4924.775140916667,-0.12200927734375,-0.001220703125,-0.9077911376953125,4924.770172916667,-0.5589967473292526,-0.09998146744311978,-0.07681799614276609,-0.5675424933433533,0.3920214474201202,3.086409330368042,0.00975385308265686,-0.08426497131586075,0.06511545181274414,XArbitraryZVertical,-0.05063852222450166,-0.03741516903225742,-0.2734813191031497,0.9598144176234049,-0.09952061623334885,0.07674247026443481,-0.9920716881752014,0,0,0,-1,-1,,,,,,,,,,,,,,,,,,1,1
2022-01-24 19:34:27.418 -0500,,,,,,,,,,4924.785077916667,-0.158935546875,0.00567626953125,-0.9224090576171875,4924.780109916667,-0.5292186493144798,-0.0948103302622859,-0.08679509243147762,-0.8337832689285278,0.174223318696022,3.023385524749756,-0.02769658714532852,-0.08790680766105652,0.08397024869918823,XArbitraryZVertical,-0.05420856265339714,-0.03436147039667884,-0.2590081457912772,0.9637403481469423,-0.09431198984384537,0.0866861566901207,-0.9917614459991455,0,0,0,-1,-1,,,,,,,,,,,,,,,,,,1,1
2022-01-24 19:34:27.428 -0500,,,,,,,,,,4924.795014916667,-0.151458740234375,0.027618408203125,-0.9379119873046875,4924.790046916667,-0.5006921346322405,-0.09032084840392944,-0.09797138418414321,-0.8496543765068054,0.2371229827404022,2.868742942810059,-0.06916928291320801,-0.09213842451572418,0.06873893737792969,XArbitraryZVertical,-0.05856209528226299,-0.03156683253163274,-0.2450481292839878,0.9672256209075334,-0.08976556360721588,0.09781473129987717,-0.991148054599762,0,0,0,-1,-1,,,,,,,,,,,,,,,,,,1,1
2022-01-24 19:34:27.438 -0500,,,,,,,,,,4924.804951916667,-0.1183624267578125,0.0327911376953125,-0.9552459716796875,4924.799983916667,-0.4735930927977512,-0.08469292741679656,-0.1082553406170756,-0.7257204651832581,0.3184743225574493,2.748984336853027,-0.0673615038394928,-0.08042560517787933,0.05267077684402466,XArbitraryZVertical,-0.06246090837890753,-0.02841197038897048,-0.23180981877969,0.9703378510730477,-0.0840965211391449,0.1080440208315849,-0.9905827641487122,0,0,0,-1,-1,,,,,,,,,,,,,,,,,,1,1
2022-01-24 19:34:27.448 -0500,,,,,,,,,,4924.814888916667,-0.0816650390625,0.0741119384765625,-0.988800048828125,4924.809919916667,-0.4463994355130474,-0.07891080584236045,-0.1171201765911362,-0.617317259311676,0.2130937278270721,2.822482585906982,-0.04007282108068466,-0.08406146615743637,0.03481274843215942,XArbitraryZVertical,-0.06574667616838191,-0.02545590899299221,-0.2185483869527342,0.9732757945928722,-0.07828889787197113,0.1168526038527489,-0.9900587201118469,0,0,0,-1,-1,,,,,,,,,,,,,,,,,,1,1
2022-01-24 19:34:27.458 -0500,,,,,,,,,,4924.824825916667,-0.07275390625,0.1077728271484375,-1.013565063476562,4924.819856916667,-0.4187366796690526,-0.07411733839213173,-0.1247085802165759,-0.46736079454422,0.08175274729728699,2.801878452301025,-0.008189909160137177,-0.05027367174625397,0.0007097721099853516,XArbitraryZVertical,-0.06859688527312773,-0.02322811250562234,-0.2050374219930674,0.9760708969849178,-0.07347442954778671,0.1243855804204941,-0.9895098209381104,0,0,0,-1,-1,,,,,,,,,,,,,,,,,,1,1
2022-01-24 19:34:27.468 -0500,,,,,,,,,,4924.834762916667,-0.0821990966796875,0.1191253662109375,-0.9904022216796875,4924.829793916667,-0.391126092491661,-0.06967295322689029,-0.1299680001533127,-0.1939641237258911,0.1253244280815125,2.773710966110229,-0.003723748028278351,-0.02182963490486145,-0.02440476417541504,XArbitraryZVertical,-0.07041553619662454,-0.02148233615859321,-0.1915724449805335,0.9787134167626095,-0.06902945041656494,0.1296024173498154,-0.9891602993011475,0,0,0,-1,-1,,,,,,,,,,,,,,,,,,1,1
2022-01-24 19:34:27.477 -0500,,,,,,,,,,4924.844699916667,-0.0923614501953125,0.1350860595703125,-0.94305419921875,4924.839730916667,-0.3637283391334118,-0.06465406159863687,-0.1330365472883424,-0.0889386385679245,0.1319312006235123,2.727189302444458,-0.01816027611494064,-0.01351916790008545,-0.001309454441070557,XArbitraryZVertical,-0.07117170855279165,-0.01970249891996298,-0.178256094392524,0.9812090279523469,-0.06403812021017075,0.132644459605217,-0.9890928268432617,0,0,0,-1,-1,,,,,,,,,,,,,,,,,,1,1
2022-01-24 19:34:27.487 -0500,,,,,,,,,,4924.854636916667,-0.10198974609375,0.0829315185546875,-0.9462432861328125,4924.849667916667,-0.3365489105935527,-0.06010417159475222,-0.1359097858171248,-0.1582498103380203,0.05674220621585846,2.722875833511353,-0.03284668177366257,-0.0004057884216308594,0.04593515396118164,XArbitraryZVertical,-0.07193406442039886,-0.01818748586673142,-0.1650079403866911,0.9834973420926089,-0.05951407179236412,0.1354917585849762,-0.9889894127845764,0,0,0,-1,-1,,,,,,,,,,,,,,,,,,1,1
2022-01-24 19:34:27.497 -0500,,,,,,,,,,4924.864573916667,-0.12109375,0.0798187255859375,-0.9315948486328125,4924.859604916667,-0.3094913440348854,-0.05553118587248216,-0.1389119341674255,-0.1348502039909363,0.1396224349737167,2.68976354598999,-0.0470210462808609,-0.05553419888019562,0.04259729385375977,XArbitraryZVertical,-0.07281304434636258,-0.0166717150908316,-0.151794275653024,0.9855854482083108,-0.05496800690889359,0.1384656131267548,-0.988840639591217,0,0,0,-1,-1,,,,,,,,,,,,,,,,,,1,1
2022-01-24 19:34:27.507 -0500,,,,,,,,,,4924.874509916667,-0.1227874755859375,0.0471954345703125,-0.9121551513671875,4924.869541916667,-0.2829229230540958,-0.04954152257861605,-0.1419034448051027,-0.2068998962640762,0.3276524543762207,2.62487006187439,-0.07206955552101135,-0.06160907447338104,0.05713909864425659,XArbitraryZVertical,-0.07364582771415511,-0.01446708821017947,-0.1388539220330556,0.9874646711276872,-0.04902350157499313,0.141427680850029,-0.9887340068817139,0,0,0,-1,-1,,,,,,,,,,,,,,,,,,1,1
2022-01-24 19:34:27.517 -0500,,,,,,,,,,4924.884446916667,-0.11883544921875,0.0325469970703125,-0.9193878173828125,4924.879478916667,-0.2572602853670389,-0.04175438092313538,-0.145947813721777,-0.380980372428894,0.4752096831798553,2.517452239990234,-0.08148831874132156,-0.09823492169380188,0.07635098695755005,XArbitraryZVertical,-0.07496178756433261,-0.01129767305580525,-0.1263970070287618,0.9890787085156693,-0.04129846766591072,0.1454302370548248,-0.9885061979293823,0,0,0,-1,-1,,,,,,,,,,,,,,,,,,1,1
2022-01-24 19:34:27.528 -0500,,,,,,,,,,4924.894383916667,-0.1044769287109375,0.105682373046875,-0.9370880126953125,4924.889415916667,-0.2329396853266645,-0.03321557189485881,-0.1510275079578902,-0.4211376309394836,0.5148072242736816,2.365128040313721,-0.08600332587957382,-0.1179071813821793,0.06868386268615723,XArbitraryZVertical,-0.07684491459830906,-0.007681845890258668,-0.1146151847247581,0.9904034426139466,-0.03283144161105156,0.1504540294408798,-0.9880716800689697,0,0,0,-1,-1,,,,,,,,,,,,,,,,,,1,1
2022-01-24 19:34:27.537 -0500,,,,,,,,,,4924.904320916667,-0.0410919189453125,0.1231842041015625,-0.965057373046875,4924.899352916667,-0.2093598550110266,-0.02489115436479491,-0.1550853711253168,-0.2586826682090759,0.4207933247089386,2.378820180892944,-0.07988636940717697,-0.04878225922584534,0.05060428380966187,XArbitraryZVertical,-0.0783314788983175,-0.004246336492921485,-0.1032080117296812,0.9915615054291169,-0.02458987943828106,0.154464453458786,-0.9876922965049744,0,0,0,-1,-1,,,,,,,,,,,,,,,,,,1,1
2022-01-24 19:34:27.547 -0500,,,,,,,,,,4924.914257916667,-0.03558349609375,0.1078338623046875,-0.946258544921875,4924.909289916667,-0.1846936136132628,-0.01749034164960103,-0.1574947805319204,-0.1358273178339005,0.3112680017948151,2.54036808013916,-0.0238182544708252,-0.03366047143936157,0.02241486310958862,XArbitraryZVertical,-0.07913178150481501,-0.001426852450245763,-0.09124132005314818,0.9926786750906278,-0.01727298833429813,0.1568444818258286,-0.9874722361564636,0,0,0,-1,-1,,,,,,,,,,,,,,,,,,1,1
2022-01-24 19:34:27.557 -0500,,,,,,,,,,4924.924194916667,-0.06292724609375,0.1216583251953125,-0.951904296875,4924.919226916667,-0.1585306280912319,-0.01062466935408056,-0.1588938479143124,-0.07678157836198807,0.2441933453083038,2.637624740600586,-0.02509219385683537,-0.05039243400096893,0.04108858108520508,XArbitraryZVertical,-0.07953239039083777,0.001005163823389215,-0.07851118946739409,0.9937350798722883,-0.01049063168466091,0.1582260876893997,-0.9873471856117249,0,0,0,-1,-1,,,,,,,,,,,,,,,,,,1,1
2022-01-24 19:34:27.567 -0500,,,,,,,,,,4924.934131916667,-0.0779571533203125,0.1208648681640625,-0.9873046875,4924.929162916667,-0.1319010227547388,-0.004279764798319055,-0.159390558877206,0.01347268465906382,0.1742001175880432,2.654068470001221,-0.05870107933878899,-0.03705841302871704,0.03541082143783569,XArbitraryZVertical,-0.07957827035835839,0.003118113920088272,-0.06552340232701302,0.9946678947778378,-0.004225502256304026,0.1587165147066116,-0.9873151779174805,0,0,0,-1,-1,,,,,,,,,,,,,,,,,,1,1
2022-01-24 19:34:27.577 -0500,,,,,,,,,,4924.944068916667,-0.1063232421875,0.1294097900390625,-0.9923858642578125,4924.939099916667,-0.1049209261713228,0.001158077350915669,-0.1589551037405484,0.04692118987441063,0.05345692858099937,2.707340002059937,-0.07909997552633286,-0.03742194175720215,8.785724639892578e-05,XArbitraryZVertical,-0.07925440365612647,0.004739547386121145,-0.05231678080346882,0.9954693160968697,0.001143477507866919,0.1582865715026855,-0.9873925447463989,0,0,0,-1,-1,,,,,,,,,,,,,,,,,,1,1
2022-01-24 19:34:27.587 -0500,,,,,,,,,,4924.954005916667,-0.151702880859375,0.1774139404296875,-0.9555816650390625,4924.949036916667,-0.07795538360484781,0.005997173778983797,-0.1588550187128482,-0.03409323468804359,0.08403930068016052,2.640396118164062,-0.1122442185878754,-0.02877822518348694,-0.004994571208953857,XArbitraryZVertical,-0.0791669190110126,0.006078708047183474,-0.03908253239370699,0.9960764232448727,0.005921628326177597,0.1581877470016479,-0.9873912930488586,0,0,0,-1,-1,,,,,,,,,,,,,,,,,,1,1
2022-01-24 19:34:27.597 -0500,,,,,,,,,,4924.963942916667,-0.12579345703125,0.1976776123046875,-0.9691009521484375,4924.958973916667,-0.05180698756595013,0.01121480500624804,-0.1591175410567668,-0.04094848036766052,0.1104552000761032,2.582155227661133,-0.1627751439809799,0.01896671950817108,0.03172367811203003,XArbitraryZVertical,-0.07930218086322972,0.007646175074245182,-0.02626375953015013,0.9964752597062391,0.01107290200889111,0.1584469527006149,-0.9873054027557373,0,0,0,-1,-1,,,,,,,,,,,,,,,,,,1,1
2022-01-24 19:34:27.607 -0500,,,,,,,,,,4924.973879916667,-0.1336822509765625,0.1823883056640625,-0.9644927978515625,4924.968910916667,-0.02568215320184562,0.01608221137747386,-0.1592036946353327,-0.04621727764606476,0.05334746837615967,2.614913940429688,-0.1416709721088409,0.03914530575275421,0.01812517642974854,XArbitraryZVertical,-0.07940576487298123,0.009035930246836474,-0.01343900210526115,0.9967107192116244,0.01587814837694168,0.1585320234298706,-0.987226128578186,0,0,0,-1,-1,,,,,,,,,,,,,,,,,,1,1
2022-01-24 19:34:27.640 -0500,,,,,,,,,,4924.983816916667,-0.1410064697265625,0.1912078857421875,-0.9615325927734375,4924.978847916667,0.0009444042171625742,0.02108799391697749,-0.1588372460647722,0.006366039160639048,0.1007051318883896,2.684842586517334,-0.1545026153326035,0.02421779930591583,0.02269947528839111,XArbitraryZVertical,-0.07933571848580491,0.01047310767040565,-0.0003658068708486611,0.9967927278819071,0.02082099206745625,0.1581701934337616,-0.9871923327445984,0,0,0,-1,-1,,,,,,,,,,,,,,,,,,1,1
2022-01-24 19:34:27.642 -0500,,,,,,,,,,4924.993752916667,-0.15191650390625,0.2081451416015625,-0.98126220703125,4924.988784916667,0.02812675146810178,0.0263427104108098,-0.1586403986075823,-0.1058803424239159,0.07575171440839767,2.722053527832031,-0.1670147627592087,0.03323175013065338,0.02556777000427246,XArbitraryZVertical,-0.0794069841778145,0.01201405725875331,0.01297395408988782,0.9966854016752864,0.02600891701877117,0.157975822687149,-0.98710036277771,0,0,0,-1,-1,,,,,,,,,,,,,,,,,,1,1
2022-01-24 19:34:27.644 -0500,,,,,,,,,,4925.003689916667,-0.1497955322265625,0.2292327880859375,-1.019454956054688,4924.998721916667,0.05554747231586314,0.03127794535549456,-0.1585113885235277,0.003063985845074058,0.06197358667850494,2.718276977539062,-0.1827966868877411,0.0502963662147522,0.005718111991882324,XArbitraryZVertical,-0.07956545431633008,0.01338486185353878,0.02644195606463144,0.9963889353233349,0.03088078834116459,0.1578484326601028,-0.9869803786277771,0,0,0,-1,-1,,,,,,,,,,,,,,,,,,1,1
2022-01-24 19:34:27.646 -0500,,,,,,,,,,4925.013626916667,-0.187835693359375,0.240203857421875,-1.011077880859375,4925.008658916667,0.08250523230803868,0.03609250428091267,-0.1571112279217154,0.0901714563369751,0.05742750316858292,2.610805511474609,-0.1854351609945297,0.0727667510509491,-0.03241485357284546,XArbitraryZVertical,-0.07913722663704693,0.01473847062612917,0.03969214593084115,0.9959641054346338,0.03564022853970528,0.1564656645059586,-0.9870401620864868,0,0,0,-1,-1,,,,,,,,,,,,,,,,,,1,1
2022-01-24 19:34:27.656 -0500,,,,,,,,,,4925.023563916667,-0.1876678466796875,0.244720458984375,-1.01092529296875,4925.018595916667,0.1075963529774882,0.04065406461631971,-0.1547705037897824,0.173039972782135,0.08952312171459198,2.399899244308472,-0.2279921621084213,0.0860501229763031,-0.02384734153747559,XArbitraryZVertical,-0.07826993510804238,0.01607931850441548,0.05203117089197692,0.9954435355570708,0.04015706107020378,0.1541533470153809,-0.9872305393218994,0,0,0,-1,-1,,,,,,,,,,,,,,,,,,1,1
2022-01-24 19:34:27.666 -0500,,,,,,,,,,4925.033500916667,-0.20513916015625,0.2676849365234375,-1.002883911132812,4925.028532916667,0.130799878007828,0.04518381513144074,-0.1523510046343129,0.08990034461021423,0.08790977299213409,2.245411157608032,-0.2323125302791595,0.09295773506164551,-0.02351707220077515,XArbitraryZVertical,-0.07739184270639815,0.01750408361041045,0.06343172094135964,0.99482675201259,0.04464525729417801,0.1517623215913773,-0.9874082207679749,0,0,0,-1,-1,,,,,,,,,,,,,,,,,,1,1
2022-01-24 19:34:27.676 -0500,,,,,,,,,,4925.043437916667,-0.201568603515625,0.2397918701171875,-1.052749633789062,4925.038469916667,0.1522341219071306,0.04950330945596659,-0.150418405255018,0.1255576759576797,0.1336871087551117,2.030973672866821,-0.2540629506111145,0.1178327053785324,-0.01538670063018799,XArbitraryZVertical,-0.07677450220132641,0.0188956694655224,0.07395116663118331,0.9941226293999611,0.04892435297369957,0.1498518288135529,-0.9874972701072693,0,0,0,-1,-1,,,,,,,,,,,,,,,,,,1,1
2022-01-24 19:34:27.686 -0500,,,,,,,,,,4925.053374916667,-0.189666748046875,0.2494964599609375,-1.069656372070312,4925.048406916667,0.171288288965009,0.05372733108537709,-0.1478584417883,0.1855104863643646,0.1595548987388611,1.774770736694336,-0.2546835839748383,0.09247118234634399,-0.06508803367614746,XArbitraryZVertical,-0.07585597473561964,0.02037305547233408,0.08329836098910345,0.9934244822018947,0.05311553925275803,0.1473202854394913,-0.987661600112915,0,0,0,-1,-1,,,,,,,,,,,,,,,,,,1,1
2022-01-24 19:34:27.696 -0500,,,,,,,,,,4925.063311916667,-0.208038330078125,0.2785186767578125,-1.091445922851562,4925.058342916667,0.1874664040423654,0.05784979554190815,-0.144942174199367,0.2110115885734558,0.1784955710172653,1.485089182853699,-0.2468774616718292,0.1050608307123184,-0.08179742097854614,XArbitraryZVertical,-0.07475943427142159,0.02194409538950846,0.09122638210352776,0.9927775190262823,0.05721127614378929,0.1444352120161057,-0.9878589510917664,0,0,0,-1,-1,,,,,,,,,,,,,,,,,,1,1
2022-01-24 19:34:27.706 -0500,,,,,,,,,,4925.073248916667,-0.2012481689453125,0.2618560791015625,-1.14569091796875,4925.068279916667,0.2006238557784708,0.06127624406836241,-0.1419970466588563,0.2346908152103424,0.1415186524391174,1.161036849021912,-0.2686593532562256,0.1369979083538055,-0.1033685207366943,XArbitraryZVertical,-0.07360916604776402,0.02330179247489539,0.09768243932182741,0.9922181048642497,0.06062156707048416,0.1415203362703323,-0.9880774617195129,0,0,0,-1,-1,,,,,,,,,,,,,,,,,,1,1
2022-01-24 19:34:27.716 -0500,,,,,,,,,,4925.083185916667,-0.2018890380859375,0.2440338134765625,-1.191375732421875,4925.078216916667,0.2100140779375053,0.0639925954015758,-0.1388011892020349,0.3000019192695618,0.1458406746387482,0.7310556769371033,-0.2645815312862396,0.1234997063875198,-0.1573355197906494,XArbitraryZVertical,-0.07227266472469233,0.02447343482712765,0.1023021632592371,0.991822456142373,0.0633339062333107,0.1383559256792068,-0.9883553981781006,0,0,0,-1,-1,,,,,,,,,,,,,,,,,,1,1
2022-01-24 19:34:27.726 -0500,,,,,,,,,,4925.093122916667,-0.169677734375,0.2474212646484375,-1.224517822265625,4925.088153916667,0.2147680840466882,0.0658209509377234,-0.1349263122428767,0.4336928725242615,0.08239686489105225,0.2608995735645294,-0.2670641243457794,0.1095160990953445,-0.2026102542877197,XArbitraryZVertical,-0.07050601624292775,0.02541942641622373,0.1046706932699131,0.9916787160019734,0.06517563760280609,0.1345172971487045,-0.9887655377388,0,0,0,-1,-1,,,,,,,,,,,,,,,,,,1,1
2022-01-24 19:34:27.736 -0500,,,,,,,,,,4925.103059916667,-0.0801849365234375,0.2722320556640625,-1.209945678710938,4925.098090916667,0.2153448122291188,0.06632636097956653,-0.1296414580135837,0.6224236488342285,0.0122007355093956,-0.04859116300940514,-0.2353987395763397,0.1181422024965286,-0.2350898385047913,XArbitraryZVertical,-0.06792054542327461,0.02593863487613796,0.1050445027382237,0.9918062265904179,0.06572155654430389,0.1292786151170731,-0.9894279837608337,0,0,0,-1,-1,,,,,,,,,,,,,,,,,,1,1
2022-01-24 19:34:27.746 -0500,,,,,,,,,,4925.112996916667,-0.0540618896484375,0.2860565185546875,-1.17523193359375,4925.108027916667,0.2135582879086301,0.06645800089679044,-0.1227849598710766,0.7594743967056274,0.07458950579166412,-0.2163922786712646,-0.1460935175418854,0.1497549414634705,-0.2196651697158813,XArbitraryZVertical,-0.06450491390838656,0.0264361661541443,0.1042901045976276,0.9921006400388235,0.06590912491083145,0.1224766746163368,-0.9902805089950562,0,0,0,-1,-1,,,,,,,,,,,,,,,,,,1,1
2022-01-24 19:34:27.756 -0500,,,,,,,,,,4925.122932916667,-0.04022216796875,0.2853240966796875,-1.163558959960938,4925.117964916667,0.2103141004630398,0.06722637878433629,-0.1154517884955528,0.7434507012367249,0.149051770567894,-0.3287955224514008,-0.1207899004220963,0.1708606034517288,-0.1841328740119934,XArbitraryZVertical,-0.06086435580640848,0.0273132335185385,0.1028011390776768,0.9924621926692224,0.06672855466604233,0.1151954829692841,-0.9910990595817566,0,0,0,-1,-1,,,,,,,,,,,,,,,,,,1,1
2022-01-24 19:34:27.766 -0500,,,,,,,,,,4925.132869916667,-0.02032470703125,0.29400634765625,-1.156585693359375,4925.127901916667,0.2064799445763809,0.06832752785152249,-0.108243080349643,0.7476209402084351,0.1539884954690933,-0.3419495522975922,-0.1080964058637619,0.1772918403148651,-0.1717312932014465,XArbitraryZVertical,-0.05729065941182348,0.02835389125003145,0.1010078330104842,0.9928299193848551,0.06787479668855667,0.1080318316817284,-0.991827666759491,0,0,0,-1,-1,,,,,,,,,,,,,,,,,,1,1
2022-01-24 19:34:27.776 -0500,,,,,,,,,,4925.142806916667,-0.011932373046875,0.3174896240234375,-1.130294799804688,4925.137838916667,0.2022892536462778,0.06932336009250357,-0.1013554828424821,0.6950099468231201,0.1335442066192627,-0.396314799785614,-0.08923651278018951,0.1928238868713379,-0.1641073226928711,XArbitraryZVertical,-0.05386157048053813,0.02932158195421084,0.09903556343047791,0.9931923022193749,0.06891236454248428,0.1011820361018181,-0.9924783706665039,0,0,0,-1,-1,,,,,,,,,,,,,,,,,,1,1
2022-01-24 19:34:27.785 -0500,,,,,,,,,,4925.152743916667,0.010772705078125,0.3003082275390625,-1.12646484375,4925.147775916667,0.1977223191415437,0.07005874148004052,-0.09491060111990442,0.661550760269165,0.103431411087513,-0.4194082319736481,-0.08161821216344833,0.2227210402488708,-0.1372374892234802,XArbitraryZVertical,-0.05062971779649764,0.03013275066308024,0.09687536003477838,0.9935510111639325,0.06968639045953751,0.09476817399263382,-0.9930573105812073,0,0,0,-1,-1,,,,,,,,,,,,,,,,,,1,1
2022-01-24 19:34:27.795 -0500,,,,,,,,,,4925.162680916667,0.0039520263671875,0.2845306396484375,-1.1260986328125,4925.157712916667,0.1929540293758885,0.07039148722333778,-0.08875904537065098,0.6323039531707764,0.0563880056142807,-0.4533073604106903,-0.05928324162960052,0.2116652727127075,-0.1328680515289307,XArbitraryZVertical,-0.04751758143875739,0.0307194420468066,0.09461911057476452,0.9939041283583824,0.07005650550127029,0.08864254504442215,-0.9935967922210693,0,0,0,-1,-1,,,,,,,,,,,,,,,,,,1,1
2022-01-24 19:34:27.805 -0500,,,,,,,,,,4925.172617916667,0.0075531005859375,0.27691650390625,-1.107192993164062,4925.167649916667,0.187710750793087,0.07047883916389705,-0.08284848902902028,0.6315457224845886,0.06739914417266846,-0.5189136266708374,-0.06622637808322906,0.2017764747142792,-0.1320027112960815,XArbitraryZVertical,-0.0445035795909925,0.03116831071106499,0.09212649222332728,0.9942638291869985,0.07017896324396133,0.0827537477016449,-0.9940959215164185,0,0,0,-1,-1,,,,,,,,,,,,,,,,,,1,1
2022-01-24 19:34:27.815 -0500,,,,,,,,,,4925.182554916667,0.015167236328125,0.2498626708984375,-1.07769775390625,4925.177585916667,0.1816584405138315,0.07099225062703499,-0.07686354039741924,0.6615267992019653,0.13376085460186,-0.604271411895752,-0.06316955387592316,0.2001282125711441,-0.1126569509506226,XArbitraryZVertical,-0.04145642892240744,0.03183341024866345,0.08922238015005418,0.9946392530820557,0.07072319835424423,0.07678787410259247,-0.9945359826087952,0,0,0,-1,-1,,,,,,,,,,,,,,,,,,1,1
2022-01-24 19:34:27.825 -0500,,,,,,,,,,4925.192491916667,0.0091400146484375,0.2360076904296875,-1.029617309570312,4925.187522916667,0.1747024638607266,0.07208776372610222,-0.07064027814797982,0.6847514510154724,0.18958780169487,-0.7008873224258423,-0.0566779151558876,0.1792807281017303,-0.08278244733810425,XArbitraryZVertical,-0.03829714788443785,0.03279760202431849,0.08586147480155093,0.9950302859837235,0.07184571027755737,0.07058154046535492,-0.9949153065681458,0,0,0,-1,-1,,,,,,,,,,,,,,,,,,1,1
2022-01-24 19:34:27.835 -0500,,,,,,,,,,4925.202428916667,0.0199737548828125,0.2255401611328125,-1.00628662109375,4925.197459916667,0.1667575916147668,0.07351527954647198,-0.06439275848183176,0.6820110678672791,0.2006716132164001,-0.7950202226638794,-0.06415627896785736,0.1716590225696564,-0.03438520431518555,XArbitraryZVertical,-0.03511630492446786,0.03392360804600222,0.08200396008168945,0.9954351443684774,0.07329685240983963,0.06434826552867889,-0.9952320456504822,0,0,0,-1,-1,,,,,,,,,,,,,,,,,,1,1
2022-01-24 19:34:27.845 -0500,,,,,,,,,,4925.212365916667,0.026275634765625,0.207611083984375,-0.977996826171875,4925.207396916667,0.1581915515162264,0.07510471594735377,-0.0585138792404598,0.6159532070159912,0.2421485483646393,-0.8387807607650757,-0.0549313873052597,0.1670592725276947,-0.01081228256225586,XArbitraryZVertical,-0.03210592225589017,0.03510041127440584,0.07782901989228813,0.9958311580178173,0.07490570843219757,0.05848049372434616,-0.9954743385314941,0,0,0,-1,-1,,,,,,,,,,,,,,,,,,1,1
2022-01-24 19:34:27.855 -0500,,,,,,,,,,4925.222302916667,0.01251220703125,0.1631622314453125,-0.9480743408203125,4925.217333916667,0.149230652618456,0.07719791445433527,-0.05338538660682914,0.5582965612411499,0.2701479494571686,-0.8898226022720337,-0.05073519051074982,0.1542506515979767,0.0176045298576355,XArbitraryZVertical,-0.02947110380688072,0.03648017747826947,0.0734369887841823,0.9961965001258737,0.07701139152050018,0.05336003378033638,-0.9956012964248657,0,0,0,-1,-1,,,,,,,,,,,,,,,,,,1,1
2022-01-24 19:34:27.865 -0500,,,,,,,,,,4925.232239916667,-0.0062255859375,0.1367034912109375,-0.911285400390625,4925.227270916667,0.139204794907368,0.07925155505520309,-0.04861613464397141,0.561802089214325,0.2456116378307343,-1.056664109230042,-0.06656229496002197,0.1145648658275604,0.04760909080505371,XArbitraryZVertical,-0.02698208121530269,0.03781877751300118,0.06851055065476234,0.9965679831347826,0.07907508313655853,0.04859698563814163,-0.9956834316253662,0,0,0,-1,-1,,,,,,,,,,,,,,,,,,1,1
2022-01-24 19:34:27.875 -0500,,,,,,,,,,4925.242175916667,0.008697509765625,0.1153411865234375,-0.9100341796875,4925.237207916667,0.1273041976745965,0.08093674068471533,-0.04406516441604567,0.5395551323890686,0.1986207067966461,-1.248198866844177,-0.08699493110179901,0.09265220910310745,0.08447349071502686,XArbitraryZVertical,-0.02454101680231701,0.03896538565233806,0.0626521232108001,0.9969724150877225,0.08076992630958557,0.0440509058535099,-0.9957588911056519,0,0,0,-1,-1,,,,,,,,,,,,,,,,,,1,1
2022-01-24 19:34:27.885 -0500,,,,,,,,,,4925.252112916667,0.0201873779296875,0.101531982421875,-0.9710845947265625,4925.247144916667,0.1135597525769262,0.0817202877761395,-0.03983834708872236,0.5521065592765808,0.07445482164621353,-1.447697162628174,-0.07286649942398071,0.07551300525665283,0.08583784103393555,XArbitraryZVertical,-0.02218684566298558,0.03964547708147869,0.05587845458467481,0.997403297253291,0.08156459033489227,0.03982780873775482,-0.9958719611167908,0,0,0,-1,-1,,,,,,,,,,,,,,,,,,1,1
2022-01-24 19:34:27.895 -0500,,,,,,,,,,4925.262049916667,0.000732421875,0.097259521484375,-1.007415771484375,4925.257081916667,0.09747130699391784,0.08114757580764681,-0.03496968881074736,0.6977301239967346,-0.07422333210706711,-1.691943883895874,-0.06082102656364441,0.06656906008720398,0.02501541376113892,XArbitraryZVertical,-0.01942458595508331,0.03965724994752937,0.04796047787124306,0.9978725767810244,0.08100898563861847,0.03496256098151207,-0.9960999488830566,0,0,0,-1,-1,,,,,,,,,,,,,,,,,,1,1
2022-01-24 19:34:27.905 -0500,,,,,,,,,,4925.271986916667,-0.0127410888671875,0.128814697265625,-1.029754638671875,4925.267018916667,0.07880366791496661,0.07882106624262344,-0.02858816979619062,0.8861343860626221,-0.2658268213272095,-1.955323219299316,-0.07797428220510483,0.06867489963769913,-0.01092785596847534,XArbitraryZVertical,-0.01582329960786467,0.03880311951727591,0.03879429689948368,0.9983681062204315,0.07870730012655258,0.02858427539467812,-0.9964878559112549,0,0,0,-1,-1,,,,,,,,,,,,,,,,,,1,1
2022-01-24 19:34:27.915 -0500,,,,,,,,,,4925.281923916667,-0.0090789794921875,0.1180419921875,-1.055709838867188,4925.276955916667,0.057059459590535,0.07480039064971272,-0.02029273907976245,1.105978012084961,-0.4323961138725281,-2.279635190963745,-0.08745575696229935,0.1085230186581612,-0.03275614976882935,XArbitraryZVertical,-0.01120154482286688,0.03708511452395341,0.02812522051760697,0.9988533174584457,0.0747152715921402,0.02029134705662727,-0.9969984292984009,0,0,0,-1,-1,,,,,,,,,,,,,,,,,,1,1
2022-01-24 19:34:27.925 -0500,,,,,,,,,,4925.291860916667,0.0131988525390625,0.1453704833984375,-1.046844482421875,4925.286892916667,0.03206055189613842,0.06964870000271704,-0.01069705422943516,1.138717651367188,-0.5085415244102478,-2.584844827651978,-0.07866678386926651,0.1073448285460472,-0.05819135904312134,XArbitraryZVertical,-0.005902671829774083,0.03472666089696704,0.01583344620371847,0.9992538972049311,0.06958842277526855,0.01069684978574514,-0.9975184202194214,0,0,0,-1,-1,,,,,,,,,,,,,,,,,,1,1
2022-01-24 19:34:27.935 -0500,,,,,,,,,,4925.301797916667,0.0289306640625,0.1429443359375,-1.074417114257812,4925.296828916667,0.004885564253340652,0.06441224191113333,-0.001976995968506967,0.9784877300262451,-0.5025137066841125,-2.728621482849121,-0.05116812139749527,0.1433931887149811,-0.04892009496688843,XArbitraryZVertical,-0.001066641206137326,0.03219803155813835,0.002409681890024539,0.9994779385358064,0.06436758488416672,0.001976994564756751,-0.9979243278503418,0,0,0,-1,-1,,,,,,,,,,,,,,,,,,1,1
2022-01-24 19:34:27.944 -0500,,,,,,,,,,4925.311734916667,0.0102996826171875,0.1320037841796875,-1.091232299804688,4925.306765916667,-0.02309321246144926,0.05926884732169417,0.00553858820449145,0.8961886167526245,-0.5466654896736145,-2.799582004547119,-0.03030195087194443,0.148482620716095,-0.07618826627731323,XArbitraryZVertical,0.00311000826282233,0.02959603721957087,-0.01145918723656725,0.9994913881505774,0.05923324450850487,-0.00553855998441577,-0.9982287883758545,0,0,0,-1,-1,,,,,,,,,,,,,,,,,,1,1
2022-01-24 19:34:27.954 -0500,,,,,,,,,,4925.321671916667,-0.0117950439453125,0.121429443359375,-1.053985595703125,4925.316702916667,-0.05161651296014253,0.05371116028726697,0.01300091877675353,0.9347248077392578,-0.606265127658844,-2.832560300827026,-0.0433804877102375,0.145004078745842,-0.09275871515274048,XArbitraryZVertical,0.007188827259151779,0.02667515986046589,-0.02562105038546368,0.9992898178837137,0.05368080362677574,-0.01300055254250765,-0.9984735250473022,0,0,0,-1,-1,,,,,,,,,,,,,,,,,,1,1
2022-01-24 19:34:27.964 -0500,,,,,,,,,,4925.331608916667,0.0071563720703125,0.1199951171875,-0.9933013916015625,4925.326639916667,-0.08014432798657677,0.0484607988926617,0.02062140990136114,0.8651347756385803,-0.5514719486236572,-2.830014944076538,-0.06022593751549721,0.1420491635799408,-0.05537188053131104,XArbitraryZVertical,0.01126977947937932,0.02379435934684055,-0.03979794969879495,0.998860798013936,0.04843153432011604,-0.02061994932591915,-0.9986136555671692,0,0,0,-1,-1,,,,,,,,,,,,,,,,,,1,1
2022-01-24 19:34:27.974 -0500,,,,,,,,,,4925.341545916667,-0.0147705078125,0.1068115234375,-0.9597015380859375,4925.336576916667,-0.1088191477400742,0.04361461356891558,0.02720417830972239,0.7249486446380615,-0.5465328693389893,-2.899070262908936,-0.03642763197422028,0.1471957266330719,0.005378067493438721,XArbitraryZVertical,0.01476404917281054,0.0210317751449968,-0.0540686178005494,0.9982065429895297,0.04358465597033501,-0.02720082364976406,-0.9986793994903564,0,0,0,-1,-1,,,,,,,,,,,,,,,,,,1,1
2022-01-24 19:34:27.984 -0500,,,,,,,,,,4925.351482916667,-0.0251312255859375,0.0812835693359375,-0.9383392333984375,4925.346513916667,-0.1386679911544728,0.03938671864315734,0.03232330402763445,0.5408867001533508,-0.4891965091228485,-3.061561107635498,-0.05412581562995911,0.1391289979219437,0.0390009880065918,XArbitraryZVertical,0.01748305393592074,0.01852282050856251,-0.06893850556787703,0.9972956394220949,0.03935596719384193,-0.03231767565011978,-0.9987024664878845,0,0,0,-1,-1,,,,,,,,,,,,,,,,,,1,1
2022-01-24 19:34:27.994 -0500,,,,,,,,,,4925.361418916667,0.0898895263671875,-0.135040283203125,-0.896820068359375,4925.356450916667,-0.1686562964328145,0.03546742004462893,0.03499764049166707,0.1250908225774765,-0.47784024477005,-2.799412965774536,-0.06056882813572884,0.1162738874554634,0.06041991710662842,XArbitraryZVertical,0.01892637953783144,0.01619347430080562,-0.08389291900906652,0.9961633740243444,0.03543826937675476,-0.03499049693346024,-0.9987591505050659,0,0,0,-1,-1,,,,,,,,,,,,,,,,,,1,1
2022-01-24 19:34:28.004 -0500,,,,,,,,,,4925.371355916667,-0.00408935546875,-0.0993194580078125,-0.9410552978515625,4925.366387916667,-0.1952234487583538,0.02955042407901078,0.03279723027304544,-0.2915255427360535,-0.7781713604927063,-2.575923681259155,0.06035996228456497,-0.1022490933537483,0.1022058129310608,XArbitraryZVertical,0.01775774030928341,0.01310445631605127,-0.0971919331986436,0.9950209061127426,0.02953023463487625,-0.03279135003685951,-0.9990258812904358,0,0,0,-1,-1,,,,,,,,,,,,,,,,,,1,1
2022-01-24 19:34:28.014 -0500,,,,,,,,,,4925.381292916667,-0.129302978515625,0.0813751220703125,-0.904296875,4925.376324916667,-0.2215931753588998,0.02400738005179923,0.02893085429945368,-0.3457280993461609,-0.4956421852111816,-2.796725988388062,-0.02808370813727379,-0.07039278000593185,0.05823820829391479,XArbitraryZVertical,0.01570227288764695,0.01032928181147682,-0.1103779557402621,0.9937118303202311,0.02399502880871296,-0.02892681956291199,-0.9992935061454773,0,0,0,-1,-1,,,,,,,,,,,,,,,,,,1,1
2022-01-24 19:34:28.024 -0500,,,,,,,,,,4925.391229916667,-0.1404266357421875,0.1499176025390625,-0.91143798828125,4925.386261916667,-0.2511483468558615,0.02080359908206398,0.02400672279557074,-0.4992827773094177,-0.3189956247806549,-3.189900636672974,-0.1500983983278275,0.1053794175386429,0.09519869089126587,XArbitraryZVertical,0.01321056682563753,0.008815729391486853,-0.1251047500349963,0.9920163349176302,0.02079610526561737,-0.02400441654026508,-0.9994955062866211,0,0,0,-1,-1,,,,,,,,,,,,,,,,,,1,1
2022-01-24 19:34:28.034 -0500,,,,,,,,,,4925.401166916667,-0.097564697265625,0.1330413818359375,-0.9117584228515625,4925.396198916667,-0.2841056245183928,0.01921469802760815,0.01841785822667765,-0.5021920204162598,-0.1509312689304352,-3.44067120552063,-0.1596362143754959,0.1683343201875687,0.0882079005241394,XArbitraryZVertical,0.01047571033559881,0.008206348837351034,-0.1414754416360186,0.98985223699762,0.01921025663614273,-0.01841681636869907,-0.9996458292007446,0,0,0,-1,-1,,,,,,,,,,,,,,,,,,1,1
2022-01-24 19:34:28.044 -0500,,,,,,,,,,4925.411103916667,-0.0749969482421875,0.1640625,-0.85223388671875,4925.406135916667,-0.3186040627881838,0.01931740683279659,0.01251356059546603,-0.5845755934715271,0.1033111065626144,-3.505818367004395,-0.1168787032365799,0.1455545425415039,0.08797675371170044,XArbitraryZVertical,0.007709327929864101,0.008543617671540859,-0.1585589467487442,0.987282432006605,0.01931469328701496,-0.0125132342800498,-0.9997351169586182,0,0,0,-1,-1,,,,,,,,,,,,,,,,,,1,1
2022-01-24 19:34:28.054 -0500,,,,,,,,,,4925.421040916667,-0.047698974609375,0.1402740478515625,-0.857269287109375,4925.416072916667,-0.352500069244837,0.02221512639277911,0.004297343867229115,-0.9849355220794678,0.3724671900272369,-3.361371517181396,-0.09720934927463531,0.1683597713708878,0.1475101709365845,XArbitraryZVertical,0.00406279666725952,0.01055851375435058,-0.1753042251503119,0.984449314184095,0.02221309393644333,-0.004297330509871244,-0.9997439980506897,0,0,0,-1,-1,,,,,,,,,,,,,,,,,,1,1
2022-01-24 19:34:28.064 -0500,,,,,,,,,,4925.430977916667,-0.1449737548828125,0.1994781494140625,-0.8525543212890625,4925.426008916667,-0.3853466782397041,0.02595109861296071,-0.008508621357872925,-1.31020176410675,0.4905468821525574,-3.393419027328491,-0.07364553213119507,0.1317654997110367,0.1423578858375549,XArbitraryZVertical,-0.001690713380182839,0.01354953436271675,-0.1915197770645265,0.98139375078618,0.02594724670052528,0.00850851833820343,-0.9996271133422852,0,0,0,-1,-1,,,,,,,,,,,,,,,,,,1,1
2022-01-24 19:34:28.074 -0500,,,,,,,,,,4925.440914916667,-0.093719482421875,0.1777496337890625,-0.8730010986328125,4925.435945916667,-0.4200322025255326,0.0324385472351735,-0.02176408351906779,-1.184297323226929,0.8257139921188354,-3.639637470245361,-0.1773982346057892,0.1777157783508301,0.1466829180717468,XArbitraryZVertical,-0.007260351722129455,0.01812955935648687,-0.2086084936358692,0.9778042292561335,0.0324251763522625,0.02176236547529697,-0.9992372393608093,0,0,0,-1,-1,,,,,,,,,,,,,,,,,,1,1
2022-01-24 19:34:28.084 -0500,,,,,,,,,,4925.450851916667,0.010589599609375,0.0993804931640625,-0.9492340087890625,4925.445882916667,-0.4558205758550136,0.03978328398726158,-0.03547727143027538,-1.326878190040588,0.8305130004882812,-3.641228675842285,-0.1334665566682816,0.1422798186540604,0.1255789399147034,XArbitraryZVertical,-0.01278224130610723,0.02337983833920241,-0.2262057992462373,0.973714980826125,0.03974776342511177,0.03546983003616333,-0.9985799789428711,0,0,0,-1,-1,,,,,,,,,,,,,,,,,,1,1
2022-01-24 19:34:28.094 -0500,,,,,,,,,,4925.460788916667,0.0229949951171875,0.1190032958984375,-1.005462646484375,4925.455819916667,-0.4913037394881724,0.04485441361591548,-0.05087219443841795,-1.415067672729492,0.4935922026634216,-3.63123345375061,-0.0341910794377327,0.04853027313947678,0.04846781492233276,XArbitraryZVertical,-0.01921179477942463,0.0279286100447906,-0.243602112406111,0.9692826254186314,0.04478136450052261,0.05085025355219841,-0.9977018237113953,0,0,0,-1,-1,,,,,,,,,,,,,,,,,,1,1
2022-01-24 19:34:28.103 -0500,,,,,,,,,,4925.470725916667,0.004974365234375,0.1820220947265625,-1.070877075195312,4925.465756916667,-0.5271177381764794,0.04850470316661894,-0.06439246626109904,-1.048333644866943,0.4786742031574249,-3.657985687255859,-0.02538951858878136,0.05465538054704666,-0.008708775043487549,XArbitraryZVertical,-0.02475566971543117,0.03178425686490321,-0.2610602782063215,0.9644813244528634,0.04838519915938377,0.06434797495603561,-0.9967538118362427,0,0,0,-1,-1,,,,,,,,,,,,,,,,,,1,1
2022-01-24 19:34:28.123 -0500,,,,,,,,,,4925.480662916667,0.07611083984375,0.1518707275390625,-0.96026611328125,4925.475693916667,-0.5620942903196761,0.04579917854310223,-0.07731921637289645,-0.9421747326850891,0.03347649797797203,-3.458029270172119,-0.04067134112119675,0.1047799736261368,-0.07491016387939453,XArbitraryZVertical,-0.03077765989099536,0.03269999702168481,-0.2779322325729832,0.9595504364733383,0.04564638435840607,0.07724220305681229,-0.995966911315918,0,0,0,-1,-1,,,,,,,,,,,,,,,,,,1,1
2022-01-24 19:34:28.139 -0500,,,,,,,,,,4925.490598916667,0.046295166015625,0.19342041015625,-1.043716430664062,4925.485630916667,-0.5952080688529778,0.04736540647598968,-0.08409585743082268,-0.25830078125,0.4266642928123474,-3.216736555099487,0.0289311446249485,0.06787405908107758,0.03508239984512329,XArbitraryZVertical,-0.03323876145867707,0.03494216924719563,-0.2938407364450997,0.9546370206041527,0.04718037322163582,0.08399677276611328,-0.9953484535217285,0,0,0,-1,-1,,,,,,,,,,,,,,,,,,1,1
2022-01-24 19:34:28.142 -0500,,,,,,,,,,4925.500535916667,0.059814453125,0.10137939453125,-1.008743286132812,4925.495567916667,-0.6258147294607265,0.04276116404586733,-0.08841393037146016,-0.3284833431243896,-0.7178888320922852,-2.97307300567627,0.003714680671691895,0.1051217466592789,-0.04853290319442749,XArbitraryZVertical,-0.03546251391193973,0.03392149870560741,-0.3083540428154344,0.9500048990871789,0.04258115962147713,0.08829878270626068,-0.9951834678649902,0,0,0,-1,-1,,,,,,,,,,,,,,,,,,1,1
2022-01-24 19:34:28.145 -0500,,,,,,,,,,4925.510472916667,-0.0689849853515625,0.14312744140625,-0.9144134521484375,4925.505504916667,-0.6562673447636166,0.03801355178305033,-0.08889221075693131,0.3544331789016724,0.07319425046443939,-3.163254976272583,0.0219607762992382,0.01260434091091156,-0.01341110467910767,XArbitraryZVertical,-0.03593422976208353,0.03229047603247776,-0.3226998132221515,0.945267615736022,0.03785434365272522,0.08877518773078918,-0.9953321218490601,0,0,0,-1,-1,,,,,,,,,,,,,,,,,,1,1
2022-01-24 19:34:28.153 -0500,,,,,,,,,,4925.520409916667,0.024688720703125,0.058685302734375,-0.925048828125,4925.515441916667,-0.6887550040358943,0.03540923356355965,-0.0871167086345299,0.183556005358696,-0.0470445454120636,-3.319053888320923,-0.1042519062757492,0.05612104386091232,0.08116990327835083,XArbitraryZVertical,-0.03501018461857891,0.03134724581627808,-0.3379633492414919,0.9399852930043003,0.03526758030056953,0.08700655400753021,-0.9955832958221436,0,0,0,-1,-1,,,,,,,,,,,,,,,,,,1,1
2022-01-24 19:34:28.163 -0500,,,,,,,,,,4925.530346916667,0.0410003662109375,0.0622711181640625,-0.91455078125,4925.525378916667,-0.7219415346010055,0.03168866974471893,-0.08738541841211808,0.01162524987012148,-0.1286566108465195,-3.343755960464478,-0.006873093545436859,-0.02858876436948776,0.07063543796539307,XArbitraryZVertical,-0.03526840417623352,0.0302331314566802,-0.3534486901502464,0.9342997704976216,0.03156247362494469,0.08727424591779709,-0.9956842064857483,0,0,0,-1,-1,,,,,,,,,,,,,,,,,,1,1
2022-01-24 19:34:28.173 -0500,,,,,,,,,,4925.540283916667,0.1163330078125,0.030303955078125,-0.924530029296875,4925.535315916667,-0.7547526535486997,0.0272573138140473,-0.08936808283831346,-0.2631202936172485,-0.2106638699769974,-3.204046726226807,0.01385584287345409,-0.02697784453630447,0.0810886025428772,XArbitraryZVertical,-0.03650539847410861,0.02911492630024996,-0.3686466421603672,0.9283960026346036,0.02714517712593079,0.08924917131662369,-0.9956393241882324,0,0,0,-1,-1,,,,,,,,,,,,,,,,,,1,1
2022-01-24 19:34:28.183 -0500,,,,,,,,,,4925.550220916667,0.03228759765625,0.14483642578125,-0.872222900390625,4925.545252916667,-0.7855260632485535,0.02176827021230701,-0.09475632218118378,-0.5728116035461426,-0.1394146531820297,-3.060181140899658,0.09466475248336792,-0.06431040912866592,0.07074815034866333,XArbitraryZVertical,-0.03959052491212227,0.0281696627325987,-0.3827666053295878,0.9225663789325534,0.02166890539228916,0.09461458772420883,-0.9952781200408936,0,0,0,-1,-1,,,,,,,,,,,,,,,,,,1,1
2022-01-24 19:34:28.193 -0500,,,,,,,,,,4925.560157916667,0.1128387451171875,0.039825439453125,-0.964508056640625,4925.555188916667,-0.8155810256801541,0.01826926863307928,-0.1019859996361774,-0.8336223959922791,-0.1188260167837143,-2.931438684463501,0.01411490887403488,0.0430273711681366,0.1224150657653809,XArbitraryZVertical,-0.04317143113993228,0.02858787482789774,-0.3964773998808984,0.9165830472543881,0.01817332953214645,0.1018092930316925,-0.9946379065513611,0,0,0,-1,-1,,,,,,,,,,,,,,,,,,1,1
2022-01-24 19:34:28.203 -0500,,,,,,,,,,4925.57009525,0.0620880126953125,0.0261993408203125,-0.9964599609375,4925.565126250001,-0.8433912860104713,0.01106519070841351,-0.1137824120076997,-1.478585958480835,-0.7136603593826294,-2.657193422317505,0.1018459647893906,-0.07371135801076889,0.02896493673324585,XArbitraryZVertical,-0.04961767246940708,0.02831285101336137,-0.408926730471007,0.9107772532024317,0.0109934164211154,0.1135370582342148,-0.9934729337692261,0,0,0,-1,-1,,,,,,,,,,,,,,,,,,1,1
2022-01-24 19:34:28.213 -0500,,,,,,,,,,4925.58003225,-0.0683441162109375,0.2702178955078125,-0.712799072265625,4925.57506325,-0.8723851686225444,0.007685979483183846,-0.1277414478178306,-1.055508494377136,1.092040657997131,-3.112684011459351,0.05446536093950272,-0.1011947095394135,-0.004637062549591064,XArbitraryZVertical,-0.05623021064267657,0.03044235241559829,-0.4218493561866715,0.9044083679592951,0.007623280398547649,0.1273943185806274,-0.9918228387832642,0,0,0,-1,-1,,,,,,,,,,,,,,,,,,1,1
2022-01-24 19:34:28.223 -0500,,,,,,,,,,4925.589969250001,0.10546875,0.12078857421875,-0.97076416015625,4925.58500025,-0.9041538231268262,0.01365956061068437,-0.1390669771290505,-1.242839217185974,0.9368067383766174,-3.231554985046387,-0.08187076449394226,0.1315990388393402,0.2774543762207031,XArbitraryZVertical,-0.05952017834016911,0.03647824742298566,-0.4361958316695466,0.8971397927682461,0.01352726761251688,0.1386191546916962,-0.9902533888816833,0,0,0,-1,-1,,,,,,,,,,,,,,,,,,1,1
2022-01-24 19:34:28.233 -0500,,,,,,,,,,4925.59990625,0.1148834228515625,0.0911712646484375,-0.9653167724609375,4925.59493725,-0.9360357387896638,0.01827486632256697,-0.1523018868470619,-1.234943985939026,1.001992225646973,-3.129901170730591,0.08740703761577606,-0.03092488646507263,0.01749533414840698,XArbitraryZVertical,-0.06378343401528346,0.04244954049544555,-0.4504124379555786,0.8895269860642293,0.01806231960654259,0.1517137736082077,-0.9882594347000122,0,0,0,-1,-1,,,,,,,,,,,,,,,,,,1,1
2022-01-24 19:34:28.243 -0500,,,,,,,,,,4925.60984325,0.1087188720703125,0.1227264404296875,-0.9598388671875,4925.604874250001,-0.9670179726212431,0.02435445763196133,-0.1636280696175563,-0.9364790320396423,1.159855246543884,-3.058437585830688,0.09085723757743835,-0.07172729074954987,0.02103346586227417,XArbitraryZVertical,-0.0667074911014041,0.04873421295485744,-0.464180493860704,0.881879497407511,0.0240267738699913,0.1628988832235336,-0.9863501787185669,0,0,0,-1,-1,,,,,,,,,,,,,,,,,,1,1
2022-01-24 19:34:28.253 -0500,,,,,,,,,,4925.619779250001,0.1201629638671875,0.1305694580078125,-0.960601806640625,4925.61481125,-0.9975438080266051,0.03021893560290911,-0.1722205169162234,-0.5955296754837036,1.021218776702881,-3.021102428436279,0.07895208895206451,-0.04864364862442017,0.0249180793762207,XArbitraryZVertical,-0.06831694376317027,0.05435406416044349,-0.4776617667327801,0.8741954382852259,0.0297673661261797,0.1713704317808151,-0.9847568869590759,0,0,0,-1,-1,,,,,,,,,,,,,,,,,,1,1
2022-01-24 19:34:28.262 -0500,,,,,,,,,,4925.62971625,0.1007232666015625,0.0699920654296875,-1.118515014648438,4925.62474825,-1.02776911954613,0.0338286109346906,-0.1765376459982385,-0.1500323563814163,0.6686723232269287,-2.959218740463257,0.08686704933643341,-0.04505227506160736,0.02329272031784058,XArbitraryZVertical,-0.06847570612656897,0.0579988805078977,-0.4908784458703259,0.8665941401238955,0.03329648450016975,0.1756220906972885,-0.983894407749176,0,0,0,-1,-1,,,,,,,,,,,,,,,,,,1,1
2022-01-24 19:34:28.273 -0500,,,,,,,,,,4925.63965325,0.003997802734375,0.3257293701171875,-0.7389068603515625,4925.63468525,-1.055042554930125,0.02348084896707386,-0.1843329868541483,-1.040591835975647,-0.7202442288398743,-2.829968214035034,0.07764288783073425,-0.1132984310388565,-0.1357271671295166,XArbitraryZVertical,-0.07363414118174043,0.05642825464370361,-0.5021556770592011,0.859786794499133,0.02308093197643757,0.1832908540964127,-0.9827877283096313,0,0,0,-1,-1,,,,,,,,,,,,,,,,,,1,1
2022-01-24 19:34:28.282 -0500,,,,,,,,,,4925.64959025,0.1163787841796875,0.283233642578125,-0.7965545654296875,4925.64462225,-1.0857198717923,0.02046147547522493,-0.1926276838261498,-0.50545334815979,0.838994562625885,-3.128809928894043,-0.01608328521251678,0.1342911273241043,0.242392361164093,XArbitraryZVertical,-0.07707503454675346,0.05839415002935472,-0.5150081952836011,0.8517135657006438,0.02008162997663021,0.1914386302232742,-0.981299102306366,0,0,0,-1,-1,,,,,,,,,,,,,,,,,,1,1
2022-01-24 19:34:28.292 -0500,,,,,,,,,,4925.65952725,0.200714111328125,0.1598968505859375,-0.947235107421875,4925.654559250001,-1.11578866087777,0.02131411927021614,-0.1979609881638074,-0.4986004829406738,0.534887433052063,-2.812113761901855,0.09548305720090866,0.08656349778175354,0.183692455291748,XArbitraryZVertical,-0.078216310594186,0.06130861854611337,-0.5276733201492159,0.8436137311399383,0.02089626342058182,0.1966705471277237,-0.980246901512146,0,0,0,-1,-1,,,,,,,,,,,,,,,,,,1,1
2022-01-24 19:34:28.302 -0500,,,,,,,,,,4925.669464250001,0.1521453857421875,0.1638031005859375,-0.883758544921875,4925.66449625,-1.142930476752462,0.02201284520531625,-0.2038699795155388,-0.5867577791213989,0.7232708930969238,-2.574325799942017,0.17915940284729,-0.04256340861320496,0.03181815147399902,XArbitraryZVertical,-0.07966292071008245,0.06424368273750093,-0.5389669361219684,0.8360867785929539,0.02155522629618645,0.2024606764316559,-0.9790531396865845,0,0,0,-1,-1,,,,,,,,,,,,,,,,,,1,1
2022-01-24 19:34:28.312 -0500,,,,,,,,,,4925.67940125,0.15118408203125,0.144378662109375,-0.9533538818359375,4925.67443225,-1.168553782337884,0.02499960744700029,-0.2104777038387753,-0.6159838438034058,0.9210337400436401,-2.520257234573364,0.127700537443161,-0.04512354731559753,0.09386718273162842,XArbitraryZVertical,-0.08075559320540912,0.06830603038572802,-0.5495970162834534,0.8287073307516084,0.02444534935057163,0.2089270800352097,-0.9776256680488586,0,0,0,-1,-1,,,,,,,,,,,,,,,,,,1,1
2022-01-24 19:34:28.322 -0500,,,,,,,,,,4925.68933825,0.1682891845703125,0.1423187255859375,-0.9977569580078125,4925.684369250001,-1.193779813991918,0.02892658953050738,-0.2170628406445529,-0.5577173233032227,0.9375080466270447,-2.47157621383667,0.122940719127655,-0.07098323106765747,0.02277189493179321,XArbitraryZVertical,-0.08149820120229441,0.07276813423898285,-0.5600030510273964,0.8212547221833901,0.02824386581778526,0.2153623253107071,-0.9761256575584412,0,0,0,-1,-1,,,,,,,,,,,,,,,,,,1,1
2022-01-24 19:34:28.332 -0500,,,,,,,,,,4925.69927525,0.1600494384765625,0.1693572998046875,-0.98626708984375,4925.69430625,-1.21859954014177,0.03275359481051819,-0.2230044886183857,-0.4928027391433716,0.9251192808151245,-2.444716215133667,0.1363528519868851,-0.07884155213832855,-0.02304250001907349,XArbitraryZVertical,-0.08192199673945308,0.07701709856237728,-0.5701574944554429,0.8138043498034452,0.03193682059645653,0.2211607098579407,-0.9747142791748047,0,0,0,-1,-1,,,,,,,,,,,,,,,,,,1,1
2022-01-24 19:34:28.342 -0500,,,,,,,,,,4925.709212250001,0.1665802001953125,0.166412353515625,-1.0079345703125,4925.70424325,-1.243315909040537,0.03593348612625846,-0.2281171232660256,-0.3611459136009216,0.8158847689628601,-2.426558971405029,0.1250548511743546,-0.05678607523441315,-0.01280182600021362,XArbitraryZVertical,-0.08210897215319345,0.08078096034154847,-0.5801684149955859,0.8063108073473165,0.03499505668878555,0.2261438220739365,-0.9734650850296021,0,0,0,-1,-1,,,,,,,,,,,,,,,,,,1,1
2022-01-24 19:34:28.352 -0500,,,,,,,,,,4925.719149250001,0.147613525390625,0.173431396484375,-1.020858764648438,4925.71418025,-1.26773722394743,0.03763176422835632,-0.2313267519086907,-0.1042089387774467,0.6375531554222107,-2.367563486099243,0.1299599260091782,-0.06285631656646729,-0.03526049852371216,XArbitraryZVertical,-0.08190185920960588,0.08339735869274159,-0.5899544345025219,0.7989309054943298,0.03662072494626045,0.2292691320180893,-0.9726739525794983,0,0,0,-1,-1,,,,,,,,,,,,,,,,,,1,1
2022-01-24 19:34:28.362 -0500,,,,,,,,,,4925.72908625,0.1275482177734375,0.1775360107421875,-1.002639770507812,4925.724117250001,-1.291418292416079,0.03804118494128903,-0.2316188641103634,0.202868178486824,0.5619239807128906,-2.296977996826172,0.1105975657701492,-0.05612160265445709,-0.0482667088508606,XArbitraryZVertical,-0.08090201504622169,0.08461039697412574,-0.5993812418319227,0.7918572114840733,0.03701640665531158,0.2295534610748291,-0.9725918769836426,0,0,0,-1,-1,,,,,,,,,,,,,,,,,,1,1
2022-01-24 19:34:28.372 -0500,,,,,,,,,,4925.739022250001,0.13446044921875,0.1799774169921875,-0.97772216796875,4925.734054250001,-1.314455024193653,0.03894769577930682,-0.2294053992608496,0.4032060503959656,0.6941206455230713,-2.199754953384399,0.08963090181350708,-0.04986202716827393,-0.02957636117935181,XArbitraryZVertical,-0.07877457589888172,0.08522280176563325,-0.6085591185732439,0.7849760715912661,0.03791774809360504,0.227398544549942,-0.9730632901191711,0,0,0,-1,-1,,,,,,,,,,,,,,,,,,1,1
2022-01-24 19:34:28.382 -0500,,,,,,,,,,4925.748959250001,0.151702880859375,0.1898651123046875,-0.9923095703125,4925.74399125,-1.336534634557112,0.04138417300975716,-0.2259193274196704,0.4529160857200623,0.7835142016410828,-2.087047815322876,0.09413983672857285,-0.04402449727058411,-0.003967881202697754,XArbitraryZVertical,-0.07571551609838907,0.08596563133843874,-0.6173767237036893,0.7782821084467844,0.04032102972269058,0.2240024209022522,-0.9737541675567627,0,0,0,-1,-1,,,,,,,,,,,,,,,,,,1,1
2022-01-24 19:34:28.392 -0500,,,,,,,,,,4925.75889625,0.1524505615234375,0.1814117431640625,-1.014495849609375,4925.75392825,-1.357454079776578,0.04442590497136699,-0.2227186421369276,0.3498799800872803,0.7578205466270447,-1.978438019752502,0.1083889305591583,-0.03101630508899689,-0.01797115802764893,XArbitraryZVertical,-0.07262082316785691,0.08693151300579749,-0.6256814053814054,0.7718107694339398,0.04331436008214951,0.220881924033165,-0.9743382334709167,0,0,0,-1,-1,,,,,,,,,,,,,,,,,,1,1
2022-01-24 19:34:28.402 -0500,,,,,,,,,,4925.76883325,0.133056640625,0.1771087646484375,-1.033828735351562,4925.76386525,-1.376974816795793,0.04740369712305284,-0.2204961287312738,0.2791882753372192,0.6876806616783142,-1.829790472984314,0.1062122732400894,-0.03730151057243347,-0.03980278968811035,XArbitraryZVertical,-0.06997159837057092,0.08807679089193772,-0.6333486395998719,0.7656473346196558,0.04623868688941002,0.2187137603759766,-0.9746928811073303,0,0,0,-1,-1,,,,,,,,,,,,,,,,,,1,1
2022-01-24 19:34:28.412 -0500,,,,,,,,,,4925.77877025,0.137542724609375,0.1732177734375,-1.020156860351562,4925.773802250001,-1.39495943933775,0.04977310126285419,-0.2183751308764403,0.3300005793571472,0.5810995697975159,-1.683522462844849,0.08448605984449387,-0.03953433036804199,-0.05878686904907227,XArbitraryZVertical,-0.06760871012684785,0.08892802123571097,-0.6403438409488494,0.7599213806603302,0.04857096821069717,0.2166436314582825,-0.9750417470932007,0,0,0,-1,-1,,,,,,,,,,,,,,,,,,1,1
2022-01-24 19:34:28.421 -0500,,,,,,,,,,4925.788707250001,0.123138427734375,0.21087646484375,-1.04034423828125,4925.783739250001,-1.411584380839381,0.05082528512584362,-0.2155171182574896,0.4110634326934814,0.3453808426856995,-1.552787065505981,0.08791497349739075,-0.04063431918621063,-0.04455220699310303,XArbitraryZVertical,-0.06544354882817119,0.08896572995322247,-0.6467463990912372,0.7546662953968011,0.0496281161904335,0.2138526141643524,-0.9756044745445251,0,0,0,-1,-1,,,,,,,,,,,,,,,,,,1,1
2022-01-24 19:34:28.431 -0500,,,,,,,,,,4925.798644250001,0.1007537841796875,0.2071380615234375,-1.07977294921875,4925.79367625,-1.427081151524622,0.05006949854889997,-0.2116513182418809,0.5227378010749817,0.1849980801343918,-1.450979232788086,0.07420702278614044,0.0008023530244827271,-0.06388401985168457,XArbitraryZVertical,-0.06354288701801869,0.08793323691576348,-0.6526482872867672,0.7498534196188094,0.04893176257610321,0.2100746482610703,-0.9764600992202759,0,0,0,-1,-1,,,,,,,,,,,,,,,,,,1,1
2022-01-24 19:34:28.441 -0500,,,,,,,,,,4925.80858125,0.0836944580078125,0.1871795654296875,-1.088485717773438,4925.803612250001,-1.441744696661567,0.0482999315407542,-0.2067906161694741,0.5795304775238037,0.06951169669628143,-1.386780500411987,0.05350162833929062,0.001818656921386719,-0.10221928358078,XArbitraryZVertical,-0.0616594688154055,0.08614721262398095,-0.6581961475754559,0.7453553352585379,0.04725252091884613,0.205319955945015,-0.9775535464286804,0,0,0,-1,-1,,,,,,,,,,,,,,,,,,1,1
2022-01-24 19:34:28.451 -0500,,,,,,,,,,4925.81851825,0.069854736328125,0.16802978515625,-1.075332641601562,4925.813549250001,-1.455698349370249,0.04560368931877339,-0.2020825557933937,0.4883872866630554,-0.01400796417146921,-1.316740989685059,0.03903460502624512,-0.01352980732917786,-0.1098533868789673,XArbitraryZVertical,-0.06019964804346366,0.08402323368595711,-0.6634172897097345,0.7410758434799566,0.04466020315885544,0.2007099390029907,-0.9786322116851807,0,0,0,-1,-1,,,,,,,,,,,,,,,,,,1,1
2022-01-24 19:34:28.461 -0500,,,,,,,,,,4925.82845525,0.0487823486328125,0.1900482177734375,-1.076171875,4925.82348625,-1.468870124859021,0.04283917364343905,-0.1986568570912586,0.3030248880386353,0.002749976702034473,-1.247468233108521,0.02787128835916519,-0.02932244539260864,-0.09589940309524536,XArbitraryZVertical,-0.05930157517464202,0.08226034239705539,-0.6682881166040153,0.7369581977619747,0.04198379069566727,0.1973527818918228,-0.9794331192970276,0,0,0,-1,-1,,,,,,,,,,,,,,,,,,1,1
